lin_acc_x,lin_acc_y,lin_acc_z,gyro_x,gyro_y,gyro_z,quat_w,quat_x,quat_y,quat_z
3.78,-0.48,-0.43,-69.1875,65.9375,81.0625,0.3578,0.7969,-0.2235,-0.4323
3.0,-0.59,-0.34,-74.0,63.0625,81.5,0.3669,0.7954,-0.2244,-0.427
2.35,-0.8,-0.33,-76.75,65.9375,88.4375,0.3765,0.7937,-0.2255,-0.4213
2.14,-1.02,-0.21,-78.875,64.25,93.3125,0.3863,0.7916,-0.2269,-0.4155
1.92,-1.15,0.03,-82.1875,53.0625,93.5,0.3961,0.789,-0.2285,-0.4104
0.52,-1.33,0.47,-85.6875,34.875,90.5,0.4056,0.7855,-0.2304,-0.4067
-0.81,-1.32,0.58,-89.6875,14.8125,84.9375,0.4147,0.7812,-0.2324,-0.4045
-1.68,-1.04,0.76,-93.9375,-4.875,80.75,0.4235,0.7762,-0.2347,-0.4038
-2.28,-0.95,0.6,-96.625,-22.0,81.75,0.4322,0.7703,-0.2375,-0.4042
-3.25,-1.26,0.08,-98.75,-30.6875,78.875,0.4407,0.764,-0.2404,-0.4053
-3.58,-1.44,-0.47,-100.5625,-31.625,68.5625,0.4489,0.7578,-0.2426,-0.4068
-4.28,-1.59,-0.99,-103.8125,-30.75,49.6875,0.4565,0.7517,-0.2433,-0.409
-5.89,-1.64,-1.01,-108.3125,-30.0,34.4375,0.464,0.7457,-0.2429,-0.4117
-6.54,-1.9,-1.04,-109.5625,-24.875,24.625,0.4713,0.7401,-0.2416,-0.4146
-6.63,-2.0,-0.93,-107.6875,-15.1875,15.375,0.4781,0.7349,-0.2394,-0.4171
-6.39,-2.08,-0.89,-102.25,-6.4375,7.0625,0.4846,0.7303,-0.2365,-0.4193
-6.18,-2.28,-0.99,-95.375,-3.4375,-4.875,0.4902,0.7264,-0.233,-0.4216
-6.37,-2.21,-1.13,-88.0625,-4.625,-21.1875,0.4948,0.723,-0.2287,-0.4245
-6.7,-1.96,-1.33,-81.125,-5.875,-36.5625,0.4983,0.72,-0.2238,-0.4279
-7.8,-1.1,-1.25,-75.6875,-2.3125,-48.375,0.5011,0.7177,-0.2182,-0.4315
-7.93,-0.43,-1.19,-69.6875,5.125,-56.625,0.5034,0.7159,-0.212,-0.4349
-7.82,0.31,-1.08,-61.1875,14.875,-60.75,0.5051,0.715,-0.2054,-0.4377
-7.72,1.0,-1.03,-50.0,24.4375,-67.25,0.506,0.7148,-0.1985,-0.4399
-8.03,2.33,-1.18,-36.6875,33.125,-81.25,0.5057,0.7159,-0.1908,-0.442
-8.21,2.9,-1.2,-22.625,37.5625,-98.1875,0.504,0.7178,-0.1824,-0.4443
-8.27,3.26,-1.08,-8.5625,37.5625,-113.6875,0.5009,0.7206,-0.1736,-0.4469
-8.02,3.5,-0.83,3.0,32.625,-126.4375,0.4963,0.7238,-0.1646,-0.4502
-6.44,3.58,-0.78,12.25,25.5625,-138.0,0.4907,0.7272,-0.1556,-0.4542
-5.7,3.61,-0.76,19.3125,18.6875,-154.5,0.4838,0.7307,-0.146,-0.4592
-5.0,3.65,-0.74,24.4375,8.9375,-176.75,0.4754,0.7341,-0.1357,-0.4655
-4.37,3.67,-0.84,27.125,-2.4375,-198.3125,0.4658,0.7372,-0.1245,-0.4732
-4.15,3.72,-0.79,27.8125,-12.625,-215.0625,0.4553,0.74,-0.1127,-0.4821
-3.71,3.79,-0.67,27.125,-20.1875,-228.3125,0.444,0.7422,-0.1003,-0.4918
-3.2,3.86,-0.69,26.25,-18.9375,-242.75,0.4321,0.7443,-0.0869,-0.5018
-3.3,4.18,-0.56,27.625,-13.25,-259.0625,0.4191,0.7465,-0.0723,-0.5117
-3.02,4.56,-0.45,29.25,-6.8125,-273.125,0.4053,0.7487,-0.0565,-0.5215
-2.84,4.87,-0.51,30.125,2.8125,-281.875,0.3909,0.751,-0.0399,-0.5307
-2.51,4.89,-0.54,28.625,17.375,-286.0,0.3762,0.7534,-0.0225,-0.5388
-1.66,5.09,-0.51,25.75,36.3125,-283.9375,0.3616,0.7562,-0.0044,-0.5453
-0.78,5.17,-0.36,22.875,57.375,-277.625,0.3473,0.7595,0.014,-0.5499
0.14,5.34,0.07,20.25,75.4375,-268.9375,0.3333,0.763,0.0325,-0.5529
0.71,4.87,0.43,18.75,92.3125,-260.9375,0.3196,0.767,0.0511,-0.5541
1.12,4.86,0.71,18.5,110.4375,-254.0625,0.3059,0.7713,0.0696,-0.5538
1.68,4.91,0.98,19.6875,129.6875,-245.0,0.2923,0.7762,0.088,-0.5516
3.03,4.55,1.19,22.75,145.1875,-232.5625,0.2788,0.7816,0.1057,-0.5479
3.69,4.53,1.45,25.375,154.0,-218.9375,0.2656,0.7872,0.1226,-0.5429
4.24,4.54,1.82,27.625,156.6875,-205.0625,0.2526,0.7927,0.1384,-0.5373
4.7,4.53,2.13,31.375,154.125,-190.0625,0.2401,0.798,0.153,-0.5312
5.18,4.19,2.57,35.3125,147.4375,-174.5625,0.2279,0.8029,0.1661,-0.5252
5.52,4.22,2.91,37.6875,138.625,-158.6875,0.2163,0.8074,0.1779,-0.5193
5.91,4.2,3.13,39.9375,129.75,-140.8125,0.2054,0.8116,0.188,-0.5135
6.05,4.09,3.41,40.375,120.9375,-123.125,0.1954,0.8155,0.1968,-0.508
6.09,4.55,3.49,37.375,111.4375,-105.9375,0.1864,0.819,0.2043,-0.5026
6.1,4.81,3.76,33.25,101.9375,-82.9375,0.1788,0.8224,0.2103,-0.4974
6.03,4.95,3.96,30.375,96.3125,-61.125,0.1724,0.8258,0.2147,-0.4922
6.31,5.07,3.86,28.1875,97.6875,-43.25,0.1669,0.8295,0.218,-0.4865
6.46,5.14,4.05,24.6875,103.9375,-26.4375,0.1621,0.8336,0.2203,-0.48
6.8,5.26,4.38,18.9375,110.0,-7.6875,0.1584,0.8381,0.2215,-0.4727
7.14,5.28,4.72,12.8125,111.1875,11.875,0.1559,0.8429,0.2216,-0.4649
7.93,5.3,5.31,6.6875,107.375,29.875,0.1545,0.8477,0.2206,-0.457
8.04,5.24,5.72,-0.75,99.6875,45.9375,0.1545,0.8524,0.2187,-0.4492
7.99,5.17,5.98,-10.625,88.6875,60.125,0.1559,0.8567,0.2159,-0.4418
7.6,5.28,5.7,-23.0625,76.0625,75.6875,0.1591,0.8605,0.2123,-0.4349
7.08,5.25,5.23,-36.9375,63.25,94.75,0.1641,0.864,0.2076,-0.4283
6.36,5.3,4.67,-53.4375,51.0,113.8125,0.1711,0.8671,0.2019,-0.422
5.58,5.49,3.87,-71.25,39.125,132.1875,0.1804,0.8696,0.1953,-0.416
4.31,6.02,2.48,-88.375,29.75,150.6875,0.1917,0.8717,0.1877,-0.41
3.93,6.13,2.31,-105.0625,22.5,166.875,0.2048,0.8733,0.1794,-0.4039
4.37,6.38,2.49,-120.1875,11.125,182.0,0.2197,0.8742,0.1703,-0.3981
4.89,6.51,2.46,-129.625,-5.875,195.25,0.2359,0.8743,0.1601,-0.3929
3.46,7.65,1.92,-134.0,-23.375,191.625,0.2524,0.8732,0.1499,-0.389
1.94,8.46,1.5,-133.1875,-35.5625,176.5,0.2684,0.8713,0.1404,-0.386
0.43,9.24,1.02,-126.8125,-42.3125,165.5,0.2836,0.8689,0.1315,-0.3839
-0.98,10.17,0.58,-115.1875,-42.125,165.4375,0.2979,0.8665,0.122,-0.3817
-1.22,9.65,0.38,-99.375,-37.4375,172.5,0.311,0.8644,0.1116,-0.379
-1.48,8.74,0.07,-85.875,-33.1875,176.125,0.3232,0.8626,0.1006,-0.3759
-1.52,7.84,-0.2,-78.75,-31.375,178.0,0.3348,0.8608,0.0893,-0.3726
-0.53,6.54,-0.3,-75.25,-32.25,185.8125,0.3463,0.859,0.0772,-0.3691
0.0,5.91,-0.31,-73.3125,-38.3125,194.3125,0.3579,0.8568,0.0643,-0.3657
0.3,5.31,-0.38,-71.1875,-50.4375,196.0625,0.3693,0.854,0.0507,-0.3629
-0.07,4.44,-0.36,-70.0625,-61.875,191.5625,0.3804,0.8506,0.0371,-0.361
-0.44,3.35,-0.3,-66.125,-66.1875,187.75,0.3911,0.8469,0.0236,-0.3595
-0.5,2.35,-0.26,-64.5,-59.5,182.8125,0.4013,0.8432,0.0104,-0.3575
-0.66,1.68,-0.3,-63.75,-50.0625,177.0,0.4112,0.8396,-0.002,-0.355
-0.91,0.65,0.02,-63.25,-45.1875,172.5,0.4208,0.8359,-0.0139,-0.3522
-1.05,0.04,0.12,-65.25,-43.375,167.125,0.4302,0.832,-0.0253,-0.3494
-1.27,-0.54,0.23,-66.625,-42.0625,159.375,0.4395,0.8279,-0.036,-0.3466
-1.33,-1.53,0.49,-65.6875,-40.0,150.125,0.4483,0.8237,-0.0461,-0.344
-1.37,-2.15,0.52,-64.3125,-37.1875,141.625,0.4567,0.8196,-0.0554,-0.3414
-1.45,-2.72,0.44,-64.9375,-34.125,133.9375,0.4649,0.8154,-0.0641,-0.3389
-1.69,-3.19,0.28,-68.3125,-30.9375,126.5625,0.473,0.8111,-0.0721,-0.3364
-2.09,-3.9,0.04,-75.0,-27.1875,118.0,0.4813,0.8065,-0.0792,-0.334
-2.51,-3.57,-0.28,-81.375,-26.0625,115.125,0.4899,0.8016,-0.0858,-0.3316
-2.82,-4.28,-0.29,-82.0,-22.0625,121.1875,0.4987,0.7967,-0.0926,-0.3287
-3.0,-4.57,-0.42,-87.875,-16.75,118.75,0.5077,0.7916,-0.0988,-0.3254
-2.55,-4.29,-0.88,-87.5,-19.3125,112.9375,0.5165,0.7863,-0.1048,-0.3226
-2.97,-4.36,-1.02,-85.9375,-30.1875,109.1875,0.5248,0.7806,-0.111,-0.3206
-3.3,-4.61,-1.09,-90.625,-42.1875,105.75,0.5333,0.7745,-0.1174,-0.3195
-3.66,-3.51,-1.45,-92.75,-49.125,103.375,0.5416,0.7679,-0.1239,-0.319
-3.71,-3.35,-1.55,-86.625,-56.375,105.6875,0.5494,0.7612,-0.131,-0.3187
-3.6,-3.18,-1.51,-79.1875,-64.75,101.125,0.5565,0.7546,-0.1383,-0.319
-3.84,-3.03,-1.57,-73.25,-73.0625,89.125,0.5626,0.7481,-0.1454,-0.3203
-4.52,-2.69,-1.6,-65.75,-79.6875,69.25,0.5677,0.7419,-0.1519,-0.3228
-5.2,-2.65,-1.72,-65.125,-84.6875,47.625,0.572,0.7358,-0.1571,-0.3267
-5.44,-2.05,-2.0,-64.75,-92.0625,34.5625,0.5757,0.7297,-0.1619,-0.3315
-5.55,-0.86,-2.35,-49.25,-100.5,27.875,0.5781,0.7241,-0.1671,-0.337
-5.95,-0.76,-2.59,-29.9375,-109.5,10.25,0.5786,0.7193,-0.1722,-0.3437
-5.93,-0.65,-2.78,-22.0,-117.8125,-8.6875,0.578,0.7149,-0.1768,-0.3516
-5.82,-0.55,-2.89,-10.75,-123.0,-18.125,0.5762,0.7109,-0.1814,-0.36
-6.13,-0.24,-2.92,-6.8125,-121.4375,-27.625,0.5739,0.7073,-0.1854,-0.3687
-6.05,0.47,-2.98,-10.25,-113.125,-38.125,0.5715,0.7039,-0.1883,-0.3775
-6.06,1.51,-2.8,-14.0625,-101.0625,-44.4375,0.5693,0.7006,-0.1901,-0.3859
-6.12,3.22,-2.25,-13.3125,-90.5,-47.5,0.5671,0.6978,-0.1912,-0.3937
-6.3,4.31,-2.24,-14.5625,-80.8125,-54.0625,0.5648,0.6953,-0.1914,-0.4012
-6.76,5.9,-2.49,-16.4375,-67.625,-62.125,0.5626,0.6931,-0.1904,-0.4084
-7.36,7.05,-2.87,-12.625,-49.3125,-68.5625,0.5601,0.6919,-0.1883,-0.4148
-7.29,7.5,-3.24,-2.4375,-22.0625,-74.8125,0.5573,0.6922,-0.1849,-0.4197
-6.34,6.6,-3.0,16.4375,7.5625,-82.4375,0.5535,0.6945,-0.1802,-0.4229
-5.03,4.99,-2.56,35.8125,22.6875,-91.4375,0.5485,0.6984,-0.1751,-0.4252
-3.52,3.52,-2.11,47.75,16.4375,-100.875,0.5422,0.7026,-0.1701,-0.4282
-2.49,1.39,-1.4,47.0625,-0.0625,-114.375,0.5353,0.7064,-0.165,-0.4327
-2.74,1.2,-1.34,34.5625,-11.4375,-134.125,0.5281,0.7094,-0.1588,-0.439
-3.07,1.5,-1.34,16.75,-3.875,-154.375,0.5213,0.712,-0.1503,-0.4458
-3.43,3.39,-1.27,1.25,21.4375,-169.5,0.515,0.7149,-0.1392,-0.452
-3.27,4.36,-1.03,-9.875,55.3125,-179.5,0.5093,0.7186,-0.1255,-0.4565
-2.99,5.19,-0.53,-18.3125,89.75,-189.5,0.504,0.7232,-0.1095,-0.4593
-2.68,5.7,-0.05,-22.375,121.3125,-197.75,0.4988,0.7286,-0.0914,-0.4604
-2.78,6.04,0.08,-24.25,151.4375,-204.0,0.4934,0.7349,-0.0715,-0.4598
-2.52,6.41,0.13,-25.5,177.625,-207.375,0.4879,0.7418,-0.0502,-0.4574
-1.95,6.75,0.37,-24.3125,193.9375,-204.5,0.4822,0.749,-0.0284,-0.4537
-0.87,6.76,1.33,-17.3125,196.6875,-199.4375,0.476,0.756,-0.0071,-0.4493
-0.22,6.67,2.08,-5.625,186.1875,-199.6875,0.4687,0.7628,0.0134,-0.4453
0.28,6.39,2.65,8.0,166.3125,-204.875,0.4602,0.7689,0.0328,-0.4426
0.59,6.16,3.02,22.125,141.8125,-213.375,0.4503,0.7744,0.0513,-0.4416
0.95,5.43,3.35,35.4375,115.75,-220.625,0.4391,0.7789,0.0688,-0.4425
1.33,5.17,3.33,46.8125,92.3125,-223.0625,0.4271,0.7826,0.0852,-0.4449
1.52,4.93,3.02,56.3125,74.0625,-223.5625,0.4144,0.7856,0.1005,-0.4484
1.69,4.83,2.64,63.1875,60.0625,-227.3125,0.4009,0.788,0.1153,-0.4528
1.96,4.51,1.87,66.5625,52.5,-230.4375,0.3871,0.7899,0.1298,-0.4576
2.43,4.66,1.83,68.5625,50.0,-229.875,0.373,0.7914,0.1441,-0.4625
2.43,4.66,1.83,70.75,50.3125,-226.1875,0.3588,0.7926,0.158,-0.467
3.97,4.31,2.17,72.4375,51.5,-222.875,0.3444,0.7937,0.1716,-0.4711
4.42,4.36,2.48,72.875,52.5625,-221.375,0.3298,0.7946,0.1851,-0.475
4.8,4.37,2.83,72.3125,54.1875,-217.6875,0.3153,0.7952,0.1982,-0.4785
5.13,4.38,3.09,71.4375,56.875,-210.6875,0.301,0.7957,0.2109,-0.4814
5.13,4.38,3.09,69.8125,59.9375,-201.8125,0.287,0.7962,0.2231,-0.4836
5.64,4.19,3.39,66.8125,62.1875,-191.5625,0.2734,0.7966,0.2348,-0.4853
5.95,4.28,3.45,63.25,64.3125,-180.25,0.2605,0.797,0.2458,-0.4863
6.55,4.19,3.45,60.3125,66.5,-168.625,0.2481,0.7975,0.2561,-0.4867
6.73,4.28,3.55,58.5,67.625,-157.75,0.2361,0.798,0.2657,-0.4867
6.87,4.4,3.62,57.3125,66.8125,-146.9375,0.2247,0.7985,0.2745,-0.4863
6.97,4.54,3.84,56.5625,64.0,-133.9375,0.2139,0.799,0.2825,-0.4858
6.74,4.32,4.07,56.4375,59.5,-119.375,0.2038,0.7996,0.2892,-0.4853
6.85,4.38,4.27,55.25,56.625,-105.3125,0.1943,0.8002,0.295,-0.4846
6.98,4.4,4.4,52.875,56.3125,-88.75,0.1857,0.8011,0.2998,-0.4835
7.51,4.25,4.5,50.5,55.0,-72.0,0.1779,0.8023,0.3035,-0.4822
7.67,4.29,4.47,47.5625,51.6875,-56.1875,0.1711,0.8037,0.3061,-0.4808
7.74,4.4,4.38,42.25,46.5,-41.125,0.1653,0.8051,0.3079,-0.4792
7.64,4.5,4.28,34.75,40.25,-25.375,0.1609,0.8066,0.3087,-0.4778
7.27,4.88,4.08,27.0625,34.375,-8.8125,0.1578,0.8081,0.3087,-0.4763
7.04,5.07,4.03,18.9375,29.5625,9.625,0.1561,0.8098,0.3077,-0.4746
6.85,5.3,3.96,10.3125,26.625,29.5625,0.1559,0.8118,0.3055,-0.4727
6.67,5.56,3.99,1.3125,23.5625,51.125,0.1572,0.814,0.3023,-0.4704
6.08,6.21,3.81,-7.4375,18.75,73.25,0.1602,0.8165,0.2978,-0.468
5.66,6.52,3.78,-15.9375,13.1875,95.125,0.1647,0.8192,0.2921,-0.4653
5.38,6.93,3.95,-24.3125,8.3125,118.25,0.1708,0.822,0.2849,-0.4625
4.91,7.82,4.15,-34.25,3.4375,144.4375,0.1788,0.8251,0.2762,-0.4593
4.29,8.18,3.91,-44.8125,-1.0,168.25,0.1884,0.8282,0.2662,-0.4557
3.58,8.53,3.62,-54.625,-6.3125,185.6875,0.1995,0.8312,0.2552,-0.4519
3.08,8.79,3.42,-61.8125,-15.3125,201.875,0.2119,0.8337,0.2431,-0.4482
2.65,8.76,3.15,-65.6875,-27.1875,218.125,0.2252,0.8359,0.2297,-0.4448
2.5,8.36,2.84,-66.1875,-40.3125,230.125,0.2393,0.8374,0.2151,-0.4418
2.27,7.92,2.26,-66.3125,-54.4375,233.8125,0.2537,0.8381,0.1999,-0.4397
1.39,7.56,1.29,-68.1875,-67.5625,233.625,0.2682,0.8379,0.1844,-0.4382
0.86,7.36,0.59,-71.4375,-77.75,233.4375,0.2831,0.8368,0.1688,-0.4372
0.25,7.31,-0.13,-76.1875,-76.0,233.9375,0.2982,0.8353,0.1531,-0.4358
-0.36,7.52,-0.56,-81.75,-60.0,234.625,0.3132,0.8339,0.1381,-0.433
-1.88,8.46,-0.87,-86.0625,-33.8125,235.5,0.3282,0.8329,0.1237,-0.428
-2.8,8.7,-0.46,-89.3125,-1.6875,234.1875,0.343,0.8326,0.1104,-0.4206
-3.01,8.9,0.1,-90.125,30.4375,232.125,0.3572,0.8331,0.0981,-0.4108
-2.73,8.81,0.74,-85.875,54.3125,230.75,0.3707,0.8341,0.0865,-0.3992
-1.65,8.13,1.27,-79.375,64.125,223.6875,0.3832,0.8353,0.0754,-0.387
-1.34,7.59,1.32,-74.5625,55.5,209.625,0.395,0.8358,0.0648,-0.3758
-1.25,6.96,1.28,-71.125,29.5,196.9375,0.406,0.8353,0.0541,-0.3667
-1.52,5.94,0.93,-68.625,-6.25,186.875,0.4166,0.8335,0.0428,-0.3604
-1.52,5.94,0.93,-65.25,-41.875,178.8125,0.4268,0.8305,0.0308,-0.3568
-1.74,5.26,0.76,-59.75,-71.375,172.25,0.4362,0.8265,0.0179,-0.3553
-2.11,3.66,0.29,-53.4375,-93.5,165.8125,0.445,0.8218,0.0045,-0.3556
-2.46,1.93,0.14,-47.375,-107.75,161.0625,0.4531,0.8168,-0.0093,-0.357
-2.8,0.99,0.13,-43.1875,-112.875,157.8125,0.4608,0.8115,-0.0232,-0.3587
-2.8,0.99,0.13,-41.0,-110.6875,156.3125,0.468,0.8062,-0.037,-0.3602
-2.7,-1.35,0.92,-39.25,-104.5625,154.125,0.475,0.8008,-0.0504,-0.3613
-1.94,-1.66,0.82,-45.5625,-100.3125,153.75,0.4822,0.7952,-0.0634,-0.3621
-2.16,-2.72,0.48,-32.1875,-97.75,152.1875,0.4885,0.7899,-0.0767,-0.3626
-3.87,-3.92,0.16,-30.0625,-87.4375,125.3125,0.4937,0.7852,-0.0877,-0.3634
-3.87,-3.92,0.16,-31.25,-69.4375,87.125,0.4979,0.781,-0.0954,-0.3646
-5.18,-4.58,0.24,-58.5625,-51.375,57.625,0.5032,0.7765,-0.0995,-0.366
-7.02,-3.99,0.09,-85.625,-45.9375,83.8125,0.5109,0.7707,-0.1044,-0.3662
-6.86,-4.11,-0.54,-70.8125,-38.9375,108.6875,0.5186,0.7654,-0.1109,-0.3646
-4.45,-4.5,-0.74,-56.5,-34.0,97.3125,0.5248,0.7609,-0.1169,-0.3631
-3.37,-5.1,-1.05,-58.9375,-35.0,73.625,0.5305,0.7565,-0.1215,-0.3627
-3.29,-5.28,-1.55,-58.5625,-48.0,56.0,0.5355,0.7518,-0.1254,-0.3638
-3.18,-5.4,-2.18,-48.4375,-65.0625,41.0,0.5391,0.7471,-0.1295,-0.3666
-3.15,-5.09,-3.54,-39.125,-80.0625,26.875,0.5416,0.7426,-0.1335,-0.3708
-3.69,-4.63,-3.24,-31.625,-93.75,17.125,0.543,0.738,-0.1379,-0.3763
-3.57,-5.87,-3.37,-28.875,-113.0625,1.625,0.5435,0.733,-0.1423,-0.3835
-3.54,-4.96,-3.08,-14.25,-144.5625,3.1875,0.5427,0.7275,-0.1487,-0.3925
-4.32,-4.57,-2.65,-5.625,-167.8125,4.0,0.541,0.7216,-0.1564,-0.4026
-4.85,-4.79,-2.61,-3.5625,-170.375,0.375,0.5389,0.7156,-0.1641,-0.413
-5.22,-4.73,-2.75,0.875,-159.0,-1.5,0.5366,0.71,-0.1712,-0.4227
-5.87,-3.6,-3.28,6.0,-143.125,1.125,0.5341,0.7051,-0.178,-0.4311
-5.86,-3.19,-3.49,8.0,-125.4375,-1.0625,0.5317,0.7009,-0.1838,-0.4385
-5.97,-2.8,-4.09,4.0625,-99.6875,-9.0,0.5295,0.6975,-0.1879,-0.4447
-6.22,-2.52,-3.93,-2.9375,-68.0625,-18.9375,0.528,0.6951,-0.1898,-0.4496
-6.24,-1.59,-3.83,-8.75,-39.875,-26.125,0.5268,0.6936,-0.1896,-0.4532
-6.08,-0.81,-3.87,-12.5,-19.0625,-30.5,0.5261,0.6928,-0.1882,-0.4559
-6.04,-0.02,-3.84,-18.25,-2.8125,-35.75,0.5257,0.6924,-0.1855,-0.4579
-6.28,1.65,-3.72,-27.5625,12.5625,-40.0625,0.526,0.6923,-0.1816,-0.4594
-6.45,2.89,-3.69,-37.5625,29.25,-40.375,0.527,0.6924,-0.1765,-0.4601
-6.63,4.38,-3.55,-47.6875,44.625,-39.625,0.5289,0.6926,-0.1703,-0.46
-6.87,6.01,-3.33,-51.8125,60.3125,-41.1875,0.5312,0.6932,-0.1631,-0.459
-7.45,8.79,-2.89,-41.625,77.375,-49.5,0.5328,0.6949,-0.1552,-0.4572
-7.4,9.24,-2.52,-20.25,93.6875,-65.0,0.5327,0.6985,-0.1464,-0.4549
-6.82,8.56,-1.86,1.9375,106.375,-83.625,0.5306,0.7037,-0.1367,-0.4523
-5.85,7.32,-1.08,17.3125,111.125,-97.8125,0.5271,0.7098,-0.1265,-0.4499
-3.62,4.53,0.11,17.3125,111.125,-97.8125,0.5224,0.7162,-0.1157,-0.4481
-2.58,3.99,0.47,24.5625,109.25,-114.5,0.5164,0.7224,-0.104,-0.4479
-2.18,4.03,0.62,25.1875,87.875,-161.0625,0.5095,0.7281,-0.0912,-0.4493
-2.0,4.52,0.45,21.375,82.4375,-173.1875,0.5022,0.7335,-0.0779,-0.4514
-1.7,5.04,0.5,19.1875,84.0625,-176.3125,0.4948,0.7385,-0.0641,-0.4535
-1.06,5.39,0.56,19.875,91.5625,-181.1875,0.487,0.7438,-0.0497,-0.4552
-0.42,5.58,0.63,23.0,99.5,-190.3125,0.4786,0.7492,-0.0345,-0.4566
-0.16,5.63,0.88,26.75,102.875,-197.0,0.4695,0.7547,-0.019,-0.4579
-0.29,5.69,1.21,29.1875,106.5,-195.0,0.4602,0.7601,-0.0034,-0.4587
-0.33,5.5,1.41,30.3125,112.25,-189.125,0.4509,0.7656,0.0119,-0.4587
-0.28,5.29,2.12,31.875,112.8125,-183.5,0.4415,0.7709,0.0268,-0.4584
-0.18,5.66,2.64,32.9375,106.0,-176.5625,0.4322,0.7757,0.041,-0.4581
0.1,6.0,3.15,36.3125,95.125,-169.1875,0.4229,0.78,0.0541,-0.4581
0.58,6.16,3.61,45.125,83.625,-166.9375,0.413,0.784,0.0663,-0.4587
1.89,5.65,3.8,55.3125,69.875,-172.0,0.4022,0.7875,0.0781,-0.4603
2.35,5.24,3.63,55.3125,69.875,-172.0,0.3907,0.7905,0.0896,-0.4632
2.66,4.83,3.39,63.6875,39.625,-190.1875,0.3786,0.7925,0.1011,-0.4672
2.93,4.12,2.69,63.6875,27.1875,-193.25,0.3665,0.7939,0.1124,-0.472
2.96,4.03,2.64,63.0625,17.375,-193.3125,0.3542,0.7946,0.1234,-0.4774
3.06,3.99,2.76,62.375,12.1875,-193.625,0.3421,0.7948,0.1342,-0.483
3.37,3.95,2.95,63.0,11.6875,-193.5625,0.3298,0.7948,0.1449,-0.4884
3.65,3.6,3.12,63.125,15.0625,-193.6875,0.3173,0.7947,0.1557,-0.4935
3.52,3.66,3.14,60.5625,26.0625,-186.25,0.3051,0.7949,0.1664,-0.4974
3.6,3.68,3.21,53.6875,49.375,-168.4375,0.2937,0.7958,0.1766,-0.4992
4.04,3.49,3.49,43.125,77.625,-157.8125,0.283,0.7977,0.1874,-0.4985
6.39,2.26,3.48,43.125,77.625,-157.8125,0.2722,0.7999,0.1991,-0.4965
6.3,3.12,3.5,34.375,94.9375,-162.75,0.2627,0.8019,0.2103,-0.4937
5.69,3.53,3.19,19.5,98.75,-117.6875,0.2547,0.8043,0.2197,-0.4899
5.47,3.99,3.29,33.625,110.25,-99.4375,0.2462,0.8077,0.2274,-0.4852
5.94,4.22,3.35,50.1875,130.1875,-92.5625,0.2365,0.8122,0.2343,-0.4791
6.41,3.97,3.55,50.1875,130.1875,-92.5625,0.2264,0.8177,0.2408,-0.4714
6.8,3.34,3.95,54.3125,151.6875,-81.9375,0.2167,0.8239,0.2465,-0.462
7.81,2.55,4.19,49.0,177.75,-49.0,0.2077,0.8306,0.2512,-0.4515
7.88,2.76,4.94,47.3125,175.875,-29.625,0.1995,0.8374,0.2545,-0.4407
8.31,2.86,5.55,43.8125,163.0625,-10.1875,0.1924,0.8439,0.2563,-0.4302
8.93,2.17,6.05,43.8125,163.0625,-10.1875,0.1868,0.8496,0.257,-0.421
9.01,1.89,6.06,38.3125,139.25,2.3125,0.1826,0.854,0.2571,-0.4138
9.2,1.83,5.71,20.1875,76.4375,14.0,0.1799,0.8573,0.2565,-0.4085
8.9,1.92,5.36,10.8125,50.0,21.6875,0.1788,0.8596,0.2554,-0.4048
7.6,2.93,5.1,3.375,35.5,32.5,0.1789,0.8616,0.2534,-0.4018
7.17,3.5,4.69,3.375,35.5,32.5,0.1789,0.8616,0.2534,-0.4018
6.8,3.88,4.28,-2.1875,36.1875,49.75,0.1821,0.8625,0.2551,-0.3973
6.83,4.87,4.36,-14.375,41.0,91.0,0.1874,0.8682,0.2454,-0.3884
7.09,4.39,4.38,-22.8125,33.8125,107.6875,0.1919,0.8712,0.2388,-0.3837
7.14,5.05,4.39,-28.75,21.125,124.6875,0.1976,0.8738,0.2309,-0.3795
6.51,5.59,4.15,-28.75,21.125,124.6875,0.2052,0.8763,0.2215,-0.3755
5.01,6.53,3.81,-41.6875,9.5,147.25,0.2152,0.8784,0.2106,-0.3711
4.58,7.52,3.85,-81.75,-6.4375,206.4375,0.2278,0.8802,0.1977,-0.3663
3.97,8.39,3.57,-103.3125,-16.5,236.4375,0.243,0.8815,0.1829,-0.3612
3.41,9.04,3.39,-122.0,-27.75,255.3125,0.2603,0.8818,0.1671,-0.356
2.86,10.51,3.36,-122.0,-27.75,255.3125,0.2788,0.881,0.1504,-0.3513
2.51,10.52,3.18,-134.875,-42.25,265.0,0.2979,0.8791,0.1334,-0.3475
2.28,9.81,2.56,-142.5,-79.3125,244.4375,0.3164,0.8756,0.1174,-0.3455
2.09,11.26,2.7,-123.3125,-109.75,232.8125,0.3333,0.8712,0.1008,-0.3461
0.7,8.54,1.74,-125.5625,-118.6875,229.0625,0.3502,0.8659,0.0842,-0.3472
0.58,6.15,1.35,-125.5625,-118.6875,229.0625,0.3673,0.8596,0.0695,-0.3484
0.67,6.65,0.83,-140.375,-116.625,210.5625,0.3848,0.8525,0.0546,-0.3495
-0.46,8.78,0.75,-150.875,-116.6875,225.0625,0.4026,0.845,0.0391,-0.3498
-0.49,9.32,1.05,-146.0625,-101.8125,227.0,0.42,0.8375,0.0237,-0.3488
-0.43,9.79,1.36,-131.875,-80.25,215.3125,0.4357,0.8307,0.0095,-0.3464
-0.87,10.33,1.91,-131.875,-80.25,215.3125,0.4496,0.8244,-0.0038,-0.3438
0.48,9.92,1.09,-114.9375,-69.75,200.625,0.4615,0.8183,-0.0148,-0.3422
-4.69,9.6,1.18,-89.9375,-26.3125,162.0,0.4724,0.8137,-0.0244,-0.3378
-3.92,9.06,0.8,-78.0,-6.0,177.75,0.4827,0.81,-0.0346,-0.3312
-1.28,7.06,0.64,-71.75,-9.3125,174.8125,0.4924,0.8062,-0.0449,-0.3249
-0.92,6.14,0.36,-71.75,-9.3125,174.8125,0.4924,0.8062,-0.0449,-0.3249
-0.81,5.38,0.14,-70.125,-26.125,156.5,0.5095,0.7969,-0.0647,-0.3181
-0.89,4.57,-0.1,-60.0,-76.3125,133.625,0.5166,0.7915,-0.0754,-0.3177
-1.26,3.35,-0.38,-52.5,-103.0,129.0625,0.5229,0.7855,-0.0871,-0.3193
-1.11,2.5,-0.54,-44.8125,-132.75,120.0625,0.528,0.779,-0.0997,-0.3231
-1.24,1.03,-0.62,-44.8125,-132.75,120.0625,0.532,0.7722,-0.1126,-0.3287
-1.41,-0.13,-0.04,-37.0625,-153.625,107.875,0.5352,0.765,-0.1262,-0.3353
-1.76,-1.11,0.09,-30.375,-175.875,101.8125,0.5381,0.7574,-0.1399,-0.3423
-2.22,-1.9,0.06,-33.9375,-167.75,97.1875,0.541,0.7498,-0.1527,-0.349
-2.56,-2.25,0.1,-37.8125,-149.25,94.9375,0.5443,0.7423,-0.1644,-0.3546
