lin_acc_x,lin_acc_y,lin_acc_z,gyro_x,gyro_y,gyro_z,quat_w,quat_x,quat_y,quat_z
-0.19,-0.17,0.01,6.625,11.3125,2.125,0.5276,0.7328,-0.0533,-0.4263
-0.02,-0.2,-0.17,4.25,14.5625,3.1875,0.5275,0.7335,-0.053,-0.4252
0.0,-0.11,-0.17,1.5,15.125,3.9375,0.5276,0.7341,-0.0527,-0.4241
0.12,-0.07,-0.15,1.5,15.125,3.9375,0.5277,0.7346,-0.0526,-0.4233
0.26,-0.08,-0.17,0.5,12.8125,3.8125,0.5278,0.7348,-0.0524,-0.4227
0.25,-0.11,-0.09,-0.625,2.0,2.6875,0.528,0.7349,-0.0524,-0.4224
0.26,-0.17,-0.09,-0.6875,-2.5,2.3125,0.5281,0.7347,-0.0527,-0.4225
0.2,-0.18,-0.02,-1.125,-5.1875,1.8125,0.5282,0.7345,-0.053,-0.4227
0.04,-0.09,0.03,-1.125,-5.1875,1.8125,0.5283,0.7342,-0.0534,-0.423
-0.06,-0.04,-0.09,-1.3125,-6.375,2.625,0.5285,0.7339,-0.0538,-0.4232
-0.11,-0.01,-0.05,-1.375,-3.6875,3.125,0.5287,0.7337,-0.0541,-0.4233
-0.11,0.04,-0.02,-1.3125,-3.1875,3.3125,0.5289,0.7335,-0.0544,-0.4234
0.04,0.0,0.02,-1.4375,-3.9375,3.5,0.5291,0.7333,-0.0547,-0.4235
0.05,-0.03,0.01,-1.4375,-3.9375,3.5,0.5292,0.733,-0.0552,-0.4237
0.08,-0.05,0.01,-1.1875,-5.9375,2.875,0.5294,0.7327,-0.0557,-0.4241
0.03,-0.04,0.04,-1.0,-8.25,2.625,0.5295,0.7324,-0.0562,-0.4244
-0.01,-0.05,0.04,-0.625,-7.8125,1.5,0.5295,0.7321,-0.0566,-0.4249
-0.07,0.0,0.07,0.125,-7.3125,1.5,0.5295,0.7318,-0.0569,-0.4253
-0.09,0.0,0.12,0.125,-7.3125,1.5,0.5296,0.7315,-0.0574,-0.4256
-0.04,-0.07,0.1,0.4375,-6.3125,1.9375,0.5296,0.7313,-0.0577,-0.4258
-0.01,-0.06,0.13,0.375,-4.5,1.5,0.5297,0.7311,-0.058,-0.4261
0.01,-0.04,0.11,0.25,-3.9375,1.4375,0.5297,0.731,-0.0582,-0.4263
-0.03,-0.07,0.12,0.75,-3.1875,1.0,0.5297,0.7309,-0.0585,-0.4265
-0.05,-0.02,0.06,0.75,-3.1875,1.0,0.5297,0.7309,-0.0585,-0.4265
-0.05,-0.02,0.03,0.75,-1.9375,1.375,0.5297,0.7308,-0.0587,-0.4265
0.0,0.0,0.13,1.3125,-1.1875,1.125,0.5297,0.7308,-0.059,-0.4266
0.08,0.02,0.25,2.5625,-3.0,0.75,0.5295,0.7307,-0.0593,-0.4267
0.05,0.04,0.21,3.4375,-3.9375,0.1875,0.5294,0.7307,-0.0596,-0.4269
0.0,-0.01,0.09,3.4375,-3.9375,0.1875,0.5291,0.7307,-0.0599,-0.4272
-0.04,-0.02,0.06,3.5625,-4.1875,-0.3125,0.5289,0.7307,-0.0601,-0.4274
-0.01,-0.04,0.01,2.5,-3.5,-0.5625,0.5287,0.7307,-0.0604,-0.4277
0.07,-0.01,0.03,2.0,-4.0625,-0.75,0.5286,0.7307,-0.0605,-0.4279
0.09,-0.02,0.05,1.875,-4.3125,-1.25,0.5284,0.7306,-0.0607,-0.4282
0.06,-0.02,0.13,1.875,-4.3125,-1.25,0.5282,0.7305,-0.061,-0.4286
0.06,0.0,0.07,2.0625,-4.375,-1.3125,0.528,0.7304,-0.0612,-0.4289
0.04,-0.03,0.08,1.9375,-3.6875,-0.875,0.5278,0.7303,-0.0613,-0.4291
0.06,-0.06,0.05,1.625,-4.0,-0.625,0.5277,0.7303,-0.0615,-0.4294
0.15,-0.07,0.03,1.75,-4.1875,-0.5,0.5276,0.7302,-0.0618,-0.4297
0.11,-0.05,0.03,1.75,-4.1875,-0.5,0.5275,0.7302,-0.062,-0.4299
0.03,-0.04,0.02,1.5,-3.9375,-0.3125,0.5273,0.73,-0.0623,-0.4301
0.1,-0.05,0.0,1.5,-3.5625,0.25,0.5273,0.73,-0.0624,-0.4304
0.09,0.0,-0.01,2.1875,-4.625,0.25,0.5271,0.7299,-0.0627,-0.4306
0.08,0.0,0.02,2.9375,-5.375,0.5,0.5269,0.7299,-0.0631,-0.4309
0.08,-0.04,0.04,2.9375,-5.375,0.5,0.5264,0.7298,-0.0639,-0.4315
0.01,-0.06,-0.02,3.75,-5.25,0.6875,0.5262,0.7298,-0.0644,-0.4318
0.04,-0.14,-0.01,4.25,-6.4375,1.4375,0.5259,0.7297,-0.0649,-0.4321
0.05,-0.17,-0.03,4.0625,-7.3125,1.3125,0.5256,0.7297,-0.0655,-0.4324
-0.03,-0.13,0.04,4.0625,-7.1875,1.1875,0.5254,0.7296,-0.066,-0.4328
-0.09,-0.1,0.0,4.0625,-7.1875,1.1875,0.5254,0.7296,-0.066,-0.4328
-0.11,-0.07,-0.01,4.0,-5.9375,0.8125,0.5261,0.7297,-0.0648,-0.432
-0.09,-0.07,0.01,4.5,-4.75,-0.1875,0.5255,0.7297,-0.0656,-0.4326
-0.07,-0.01,0.04,4.8125,-5.25,-0.25,0.5251,0.7297,-0.066,-0.4329
-0.06,-0.03,0.03,5.125,-5.6875,-0.5,0.5248,0.7297,-0.0664,-0.4332
-0.09,0.0,0.03,5.125,-5.6875,-0.5,0.5244,0.7297,-0.0668,-0.4336
-0.12,-0.02,0.04,5.3125,-5.75,-0.6875,0.524,0.7297,-0.0672,-0.434
-0.07,0.01,0.1,5.3125,-6.375,-0.9375,0.5236,0.7297,-0.0676,-0.4344
-0.1,0.03,0.04,5.6875,-6.5625,-1.375,0.5232,0.7297,-0.0681,-0.4349
-0.22,0.0,0.09,5.75,-6.125,-2.0,0.5227,0.7298,-0.0684,-0.4353
-0.22,-0.03,0.09,5.75,-6.125,-2.0,0.5226,0.7299,-0.0679,-0.4352
-0.19,-0.05,0.1,5.6875,-5.1875,-2.0625,0.5222,0.73,-0.0681,-0.4357
-0.13,-0.05,0.1,4.9375,-4.9375,-3.0,0.5218,0.73,-0.0683,-0.4361
-0.11,-0.05,0.12,4.625,-5.0625,-3.5625,0.5213,0.73,-0.0685,-0.4366
-0.1,-0.11,0.12,4.625,-5.0,-4.3125,0.5208,0.73,-0.0685,-0.4371
-0.09,-0.13,0.13,4.625,-5.0,-4.3125,0.5208,0.73,-0.0685,-0.4371
-0.1,-0.2,0.1,4.8125,-4.1875,-5.1875,0.5213,0.7303,-0.0669,-0.4364
-0.04,-0.22,0.16,3.5625,-2.6875,-5.0625,0.5204,0.7304,-0.0668,-0.4373
0.01,-0.2,0.14,2.75,-2.0,-4.25,0.5201,0.7304,-0.0667,-0.4376
0.09,-0.16,0.16,2.5625,-2.5,-4.0,0.5198,0.7305,-0.0666,-0.438
0.1,-0.12,0.21,2.5625,-2.5,-4.0,0.5195,0.7304,-0.0666,-0.4383
0.06,-0.1,0.22,2.375,-2.5625,-3.75,0.5193,0.7305,-0.0665,-0.4386
0.05,-0.14,0.16,2.6875,-0.8125,-2.875,0.519,0.7305,-0.0665,-0.4388
0.08,-0.15,0.12,2.25,-0.625,-1.625,0.5189,0.7306,-0.0665,-0.4389
0.12,-0.15,0.15,2.0,-1.4375,-0.625,0.5187,0.7306,-0.0666,-0.439
0.13,-0.09,0.25,2.0,-1.4375,-0.625,0.5187,0.7306,-0.0666,-0.439
0.07,-0.05,0.24,2.125,-3.0,-0.4375,0.5184,0.7305,-0.0671,-0.4395
0.07,-0.02,0.22,2.1875,-3.9375,0.4375,0.5182,0.7302,-0.0677,-0.44
0.03,0.0,0.16,2.125,-4.0625,0.875,0.5181,0.7301,-0.068,-0.4402
0.02,0.0,0.22,1.875,-3.5625,1.0625,0.5181,0.73,-0.0683,-0.4405
0.0,0.02,0.24,1.875,-3.5625,1.0625,0.5181,0.73,-0.0683,-0.4405
0.03,-0.04,0.24,1.75,-3.1875,1.1875,0.5175,0.7298,-0.0696,-0.4413
0.03,-0.1,0.17,1.625,-2.0625,1.125,0.5174,0.7297,-0.0699,-0.4415
0.07,-0.11,0.1,1.1875,-1.25,0.5625,0.5173,0.7297,-0.0701,-0.4417
0.05,-0.1,0.09,0.8125,-1.375,0.875,0.5173,0.7297,-0.0702,-0.4417
0.12,-0.12,0.07,0.8125,-1.375,0.875,0.5173,0.7297,-0.0702,-0.4417
0.17,-0.15,0.1,0.8125,-2.1875,0.625,0.5169,0.7296,-0.071,-0.4423
0.17,-0.21,0.06,1.1875,-2.25,0.5625,0.5167,0.7294,-0.0713,-0.4425
0.23,-0.26,0.04,1.1875,-2.5,0.4375,0.5167,0.7294,-0.0714,-0.4426
0.26,-0.29,0.04,1.125,-3.0,0.875,0.5166,0.7293,-0.0717,-0.4428
0.22,-0.27,0.05,1.125,-3.0,0.875,0.5166,0.7293,-0.0717,-0.4428
0.19,-0.18,0.1,0.6875,-3.3125,1.5,0.5166,0.7292,-0.072,-0.4429
0.15,-0.13,0.06,0.375,-2.8125,2.9375,0.5168,0.729,-0.0726,-0.4429
0.13,0.03,0.0,1.125,-0.4375,5.875,0.517,0.729,-0.073,-0.4426
0.13,0.05,0.04,2.75,1.0625,7.125,0.5172,0.7291,-0.0735,-0.4422
0.1,0.03,0.09,2.75,1.0625,7.125,0.5172,0.7291,-0.0735,-0.4422
0.12,0.05,-0.04,4.125,2.1875,7.9375,0.5172,0.7293,-0.0741,-0.4417
0.07,0.09,0.15,6.5,4.1875,9.1875,0.517,0.7303,-0.0755,-0.4401
0.18,-0.03,0.18,10.6875,7.75,10.125,0.5168,0.731,-0.0762,-0.4391
0.19,-0.12,0.04,10.5,7.125,9.6875,0.5166,0.7316,-0.0768,-0.4382
0.06,-0.18,-0.09,10.5,7.125,9.6875,0.5166,0.7316,-0.0768,-0.4382
0.01,-0.04,-0.07,8.75,5.3125,10.125,0.5164,0.7321,-0.0776,-0.4374
0.02,0.09,0.04,4.375,1.3125,13.5,0.5167,0.7326,-0.0794,-0.4359
0.02,0.51,0.16,3.1875,-0.5,15.3125,0.5171,0.7326,-0.0804,-0.4352
-0.1,0.67,0.11,3.1875,-0.5,15.3125,0.5175,0.7326,-0.0817,-0.4345
-0.19,0.78,0.12,2.5625,-1.125,16.75,0.5175,0.7326,-0.0817,-0.4345
-0.29,0.76,0.06,2.5,-0.75,18.125,0.518,0.7325,-0.0829,-0.4338
-0.27,0.79,0.35,4.0625,1.625,19.3125,0.5189,0.7329,-0.0855,-0.4316
-0.16,0.7,0.26,6.5625,3.3125,20.5,0.5191,0.7333,-0.0869,-0.4304
-0.2,0.55,0.11,8.375,4.9375,19.625,0.5192,0.7338,-0.088,-0.4293
-0.29,0.32,-0.14,8.9375,5.4375,17.4375,0.5192,0.7338,-0.088,-0.4293
-0.19,0.17,0.07,9.3125,5.25,15.4375,0.5192,0.7343,-0.0891,-0.4282
0.0,0.02,-0.04,10.25,6.0625,14.3125,0.519,0.7355,-0.0909,-0.4259
0.13,-0.15,-0.24,11.4375,8.625,12.3125,0.5187,0.7363,-0.0914,-0.4246
0.49,-0.52,-0.38,10.875,11.0625,11.0,0.5186,0.7371,-0.0918,-0.4233
0.52,-0.56,-0.28,9.5625,12.8125,9.5,0.5186,0.7371,-0.0918,-0.4233
0.43,-0.58,-0.26,8.4375,12.8125,8.875,0.5185,0.7379,-0.0921,-0.4221
0.5,-0.67,-0.28,7.625,12.625,9.75,0.5186,0.7393,-0.0928,-0.4194
0.97,-0.89,-0.33,7.0,14.1875,11.3125,0.5186,0.7401,-0.0932,-0.4179
1.2,-1.21,-0.57,7.5,14.5625,12.25,0.5187,0.7408,-0.0934,-0.4163
1.4,-1.24,-0.39,6.4375,16.3125,11.5625,0.5187,0.7408,-0.0934,-0.4163
1.41,-1.28,-0.16,4.4375,16.25,13.4375,0.5191,0.7415,-0.0937,-0.4147
1.64,-1.17,-0.16,4.0625,14.1875,16.1875,0.52,0.7426,-0.0951,-0.4113
1.93,-1.39,-0.2,5.25,13.4375,20.0,0.5204,0.7432,-0.0959,-0.4095
2.03,-1.25,-0.15,5.1875,13.625,20.0,0.521,0.7435,-0.097,-0.4079
1.86,-0.89,-0.16,4.8125,9.4375,21.4375,0.521,0.7435,-0.097,-0.4079
1.6,-0.68,-0.3,5.4375,4.8125,24.3125,0.5215,0.7437,-0.0985,-0.4065
1.36,-0.43,-0.46,6.5,3.25,27.5625,0.5228,0.744,-0.1024,-0.4032
1.23,0.15,-0.48,6.125,4.75,32.1875,0.5239,0.7441,-0.1046,-0.4011
1.25,0.39,-0.3,4.5,7.4375,37.625,0.5252,0.7443,-0.1069,-0.3986
1.18,0.71,-0.19,3.5,9.0625,42.75,0.5252,0.7443,-0.1069,-0.3986
1.07,1.08,-0.08,2.3125,6.375,46.3125,0.5266,0.7441,-0.1097,-0.3961
1.02,1.66,-0.11,0.625,-0.6875,49.25,0.5298,0.7429,-0.1163,-0.3923
0.79,1.9,-0.26,0.4375,-8.8125,49.125,0.5311,0.7419,-0.1201,-0.3912
0.57,2.08,-0.37,0.6875,-16.1875,47.1875,0.5324,0.7407,-0.1238,-0.3906
0.44,2.16,-0.5,0.1875,-22.1875,45.25,0.5324,0.7407,-0.1238,-0.3906
0.47,2.13,-0.68,-0.5,-24.75,43.8125,0.5336,0.7394,-0.1277,-0.3901
0.26,2.23,-0.75,-2.4375,-25.5625,42.9375,0.5364,0.7364,-0.1351,-0.3895
-0.02,2.47,-0.92,-7.0,-25.3125,43.8125,0.5386,0.7346,-0.1387,-0.3888
-0.51,2.93,-1.37,-12.375,-21.6875,48.1875,0.5411,0.7327,-0.142,-0.3875
-0.53,2.83,-1.51,-16.25,-13.75,52.25,0.5411,0.7327,-0.142,-0.3875
-0.51,2.59,-1.58,-17.0,-2.3125,54.125,0.5436,0.7311,-0.1454,-0.3857
-0.67,2.2,-1.67,-16.8125,7.6875,55.8125,0.5497,0.7288,-0.1504,-0.3795
-0.76,1.28,-1.63,-17.4375,14.5,59.25,0.5531,0.7278,-0.1528,-0.3755
-1.17,0.91,-1.59,-17.4375,19.625,63.6875,0.5565,0.7269,-0.1553,-0.3712
-1.67,0.56,-1.63,-17.125,23.3125,65.5625,0.5565,0.7269,-0.1553,-0.3712
-2.48,-0.12,-1.6,-16.5,25.6875,66.8125,0.5594,0.7258,-0.1586,-0.3675
-2.88,-0.64,-1.54,-13.6875,25.1875,67.3125,0.5656,0.7242,-0.1639,-0.3588
-3.15,-1.07,-1.43,-10.25,19.1875,65.25,0.5681,0.7233,-0.1671,-0.3555
-3.52,-1.56,-1.25,-7.4375,7.75,61.5625,0.5699,0.722,-0.1704,-0.3532
-4.9,-2.54,-1.03,-5.9375,-4.25,53.9375,0.5699,0.722,-0.1704,-0.3532
-5.46,-3.11,-1.02,-4.9375,-7.6875,45.25,0.5714,0.7209,-0.1736,-0.3517
-5.79,-3.73,-0.83,-5.5,-1.125,39.5,0.5746,0.7194,-0.1772,-0.3478
-5.83,-4.24,-0.47,-8.625,9.3125,34.8125,0.5764,0.7187,-0.1782,-0.3457
-5.31,-4.95,0.25,-10.75,12.6875,30.6875,0.5778,0.718,-0.1792,-0.3442
-5.35,-5.24,0.51,-9.8125,5.75,25.5625,0.5778,0.718,-0.1792,-0.3442
-5.84,-5.57,0.63,-6.75,-9.625,16.1875,0.5784,0.7171,-0.1807,-0.3444
-7.27,-6.19,0.59,-3.125,-29.375,1.6875,0.5769,0.7151,-0.1835,-0.3494
-8.13,-6.66,0.11,2.4375,-42.625,-13.8125,0.5749,0.7147,-0.184,-0.3533
-8.8,-7.1,-0.72,7.875,-43.75,-30.5,0.5723,0.715,-0.183,-0.3575
-9.39,-7.67,-1.62,10.5625,-33.4375,-48.5,0.5723,0.715,-0.183,-0.3575
-11.12,-8.48,-2.29,9.5625,-17.125,-68.3125,0.5684,0.7155,-0.182,-0.3633
-11.37,-8.54,-2.19,5.375,-0.75,-88.5625,0.5622,0.7191,-0.1694,-0.3718
-11.67,-8.2,-1.99,-1.125,16.1875,-108.5,0.5586,0.7216,-0.16,-0.3765
-13.24,-6.35,-2.04,-3.9375,26.6875,-132.4375,0.5537,0.7243,-0.1492,-0.3828
-13.89,-5.22,-2.52,0.125,20.6875,-161.1875,0.5537,0.7243,-0.1492,-0.3828
-14.09,-4.21,-3.15,8.4375,2.75,-189.4375,0.547,0.7271,-0.1378,-0.3913
-14.16,-3.37,-3.37,16.9375,-13.0625,-215.75,0.529,0.7324,-0.1123,-0.4136
-16.46,-1.96,-2.81,18.25,-19.5,-240.5625,0.519,0.7349,-0.0969,-0.4257
-18.32,-0.63,-2.63,10.9375,-9.875,-261.1875,0.5089,0.7374,-0.079,-0.437
-19.92,1.2,-2.29,0.5625,13.5625,-279.3125,0.5089,0.7374,-0.079,-0.437
-21.12,5.74,-1.19,-6.6875,36.8125,-299.4375,0.4984,0.7402,-0.0585,-0.4475
-20.71,8.22,-0.8,-4.875,45.3125,-326.1875,0.4717,0.7455,-0.0119,-0.4706
-20.75,9.97,-0.41,7.5,36.625,-363.1875,0.4539,0.7473,0.0139,-0.4851
-21.57,10.95,-0.42,22.0,23.3125,-408.6875,0.4332,0.748,0.0418,-0.501
-22.85,12.33,-0.84,27.6875,16.125,-451.375,0.4332,0.748,0.0418,-0.501
-21.81,13.37,-0.72,29.3125,22.4375,-482.75,0.4105,0.7477,0.0718,-0.517
-19.72,14.21,-0.42,32.25,33.4375,-505.0,0.3597,0.7441,0.1358,-0.5463
-16.9,14.87,-0.01,33.375,40.3125,-519.6875,0.3325,0.7405,0.1688,-0.5592
-13.71,15.22,0.78,32.1875,46.5,-528.75,0.304,0.7353,0.2022,-0.571
-12.2,16.35,0.46,31.5,51.0,-538.75,0.304,0.7353,0.2022,-0.571
-10.64,17.09,0.12,33.5,53.3125,-541.5625,0.2746,0.7287,0.2354,-0.5815
-6.86,17.46,-0.13,35.3125,56.25,-537.375,0.2145,0.7119,0.2991,-0.598
-4.37,17.73,0.21,35.1875,60.375,-528.3125,0.1847,0.7026,0.3291,-0.6032
-2.16,17.93,1.03,33.75,72.3125,-510.5,0.1556,0.6935,0.3573,-0.606
-1.02,17.74,1.89,31.5625,86.4375,-484.4375,0.1556,0.6935,0.3573,-0.606
0.46,16.77,2.53,29.6875,99.625,-451.8125,0.1276,0.6848,0.3832,-0.6066
1.91,16.87,3.04,31.0,118.375,-412.375,0.0754,0.6722,0.4263,-0.6006
4.32,17.15,3.49,35.5625,142.25,-360.875,0.0522,0.6696,0.442,-0.5946
10.78,16.23,4.73,40.9375,159.9375,-297.3125,0.0317,0.6691,0.4536,-0.5879
13.75,15.46,5.64,45.5625,163.625,-234.75,0.0317,0.6691,0.4536,-0.5879
15.46,14.83,6.38,44.625,153.5,-186.75,0.0141,0.6695,0.4622,-0.5813
16.45,14.61,7.13,38.125,131.875,-156.5625,-0.0135,0.6702,0.4746,-0.5705
17.52,13.71,8.16,35.625,111.6875,-126.8125,-0.024,0.6714,0.4778,-0.566
18.01,13.05,8.1,36.6875,102.5,-89.9375,-0.0325,0.6741,0.4788,-0.5615
18.44,12.27,7.94,33.3125,101.625,-50.0,-0.0325,0.6741,0.4788,-0.5615
18.28,11.69,7.17,18.875,97.5,-16.75,-0.0383,0.678,0.4786,-0.5566
17.3,12.07,6.85,-9.625,83.1875,10.3125,-0.0389,0.687,0.4778,-0.5461
15.87,12.61,6.83,-43.625,63.8125,37.0,-0.0338,0.692,0.4773,-0.5406
14.42,13.07,7.05,-71.9375,47.875,64.0,-0.0259,0.6977,0.4759,-0.5349
12.63,13.3,7.31,-90.125,40.3125,91.1875,-0.0259,0.6977,0.4759,-0.5349
12.22,12.93,7.25,-100.5,37.0,118.4375,-0.0161,0.7043,0.4733,-0.5289
11.91,12.53,7.18,-108.375,31.75,141.3125,0.0087,0.7184,0.4655,-0.5168
11.63,12.31,6.82,-119.1875,19.75,156.375,0.0238,0.7248,0.4611,-0.5114
9.22,12.7,6.24,-131.1875,1.0625,165.1875,0.0406,0.7299,0.4567,-0.507
8.09,13.01,6.52,-140.9375,-23.625,169.875,0.0406,0.7299,0.4567,-0.507
6.99,13.15,6.79,-143.6875,-46.125,179.625,0.059,0.7343,0.4515,-0.5035
5.8,12.97,6.73,-135.6875,-59.0,194.1875,0.0963,0.7426,0.4365,-0.4988
5.42,12.24,6.53,-118.3125,-61.625,206.875,0.1138,0.7469,0.4266,-0.4971
4.79,11.47,6.31,-100.125,-60.0625,214.875,0.131,0.7515,0.4155,-0.4954
4.31,10.67,6.16,-89.1875,-60.4375,224.3125,0.131,0.7515,0.4155,-0.4954
2.98,10.15,5.15,-87.125,-57.1875,241.9375,0.1487,0.7564,0.4031,-0.4932
2.15,10.34,4.12,-94.5,-46.5625,265.75,0.1875,0.7689,0.3746,-0.483
0.33,10.81,2.56,-113.125,-25.25,293.25,0.2092,0.7767,0.3599,-0.4728
-8.11,14.24,0.44,-141.1875,8.8125,316.25,0.2328,0.785,0.3454,-0.4586
-12.01,16.71,0.6,-175.625,40.4375,335.5625,0.2328,0.785,0.3454,-0.4586
-13.41,17.59,0.51,-199.5625,55.1875,373.5625,0.2587,0.7936,0.3292,-0.4415
-12.99,16.29,0.21,-196.5625,66.375,407.0625,0.3088,0.8105,0.2922,-0.4028
-11.61,13.83,-2.39,-179.8125,77.75,389.375,0.33,0.8166,0.2759,-0.3849
-11.68,12.21,-3.98,-165.25,67.8125,343.75,0.3502,0.8198,0.2606,-0.3709
-12.47,10.19,-5.02,-158.4375,23.5625,305.1875,0.3502,0.8198,0.2606,-0.3709
-12.88,8.52,-6.01,-157.875,-43.3125,275.5,0.3705,0.8195,0.2451,-0.3621
-15.69,6.58,-7.46,-159.25,-99.5625,259.5,0.4124,0.8118,0.2119,-0.355
-16.76,6.37,-7.26,-159.625,-131.0,251.1875,0.4323,0.8066,0.1946,-0.3529
-16.77,5.68,-7.25,-149.625,-135.625,245.875,0.4495,0.8025,0.1788,-0.3494
-15.7,2.06,-7.72,-127.5625,-104.0,231.75,0.4495,0.8025,0.1788,-0.3494
-15.18,0.14,-8.22,-107.375,-47.6875,208.1875,0.4635,0.8,0.166,-0.343
-13.95,-1.65,-8.69,-91.375,6.25,189.75,0.4849,0.7991,0.1481,-0.3232
-12.15,-3.47,-8.65,-82.125,37.25,173.9375,0.4938,0.7989,0.1415,-0.3129
-7.88,-6.26,-8.71,-77.75,42.875,155.875,0.5018,0.7982,0.1355,-0.3043
-6.31,-7.45,-8.61,-71.4375,29.9375,135.0625,0.5018,0.7982,0.1355,-0.3043
-5.55,-8.4,-8.13,-62.875,6.0625,112.375,0.5089,0.797,0.1298,-0.2984
-5.08,-9.42,-7.09,-56.0,-20.125,92.75,0.5206,0.7928,0.1181,-0.2939
-4.86,-9.25,-6.94,-45.6875,-40.25,79.75,0.5247,0.7908,0.1116,-0.2946
-5.03,-9.07,-7.23,-27.5,-58.625,68.0625,0.5272,0.7891,0.1045,-0.2974
-5.1,-9.0,-7.51,-4.875,-79.9375,56.0,0.5272,0.7891,0.1045,-0.2974
-4.5,-10.16,-7.87,20.875,-100.875,42.9375,0.5277,0.7879,0.0966,-0.3024
-4.11,-10.78,-7.86,44.25,-119.8125,27.625,0.5236,0.7862,0.0802,-0.3183
-4.28,-11.26,-7.85,60.0,-132.3125,8.5625,0.5199,0.7858,0.0742,-0.3268
-7.74,-10.9,-7.74,63.25,-114.25,-11.0625,0.5157,0.7864,0.0719,-0.3322
-8.56,-10.11,-7.52,55.875,-59.0625,-27.3125,0.5157,0.7864,0.0719,-0.3322
-8.07,-9.38,-6.74,45.0,6.75,-40.375,0.5116,0.7883,0.0736,-0.3338
-7.08,-8.95,-5.76,38.375,55.8125,-57.6875,0.5016,0.7943,0.0863,-0.3317
-6.17,-8.51,-4.29,38.6875,73.5625,-81.875,0.4952,0.7971,0.095,-0.332
-6.32,-7.75,-3.89,43.0625,65.5625,-106.5,0.4879,0.7993,0.1041,-0.335
-6.51,-6.81,-3.94,50.5,41.75,-129.875,0.4879,0.7993,0.1041,-0.335
-6.85,-6.16,-4.09,61.4375,17.375,-155.8125,0.4791,0.8009,0.1136,-0.3408
-7.61,-5.67,-4.36,69.5,3.6875,-181.3125,0.4583,0.8026,0.1356,-0.3572
-7.61,-4.98,-4.62,70.5,-0.0625,-202.0,0.447,0.8026,0.1487,-0.3658
-7.32,-4.09,-4.39,65.1875,7.4375,-219.25,0.4352,0.8024,0.1634,-0.3743
-7.01,-2.28,-3.15,61.9375,17.4375,-235.6875,0.4352,0.8024,0.1634,-0.3743
-6.89,-1.24,-2.31,64.8125,17.25,-255.0,0.4224,0.8016,0.1793,-0.3833
-6.77,-0.16,-1.72,74.8125,-3.125,-276.8125,0.3928,0.7962,0.211,-0.409
-7.05,0.75,-1.73,91.5,-43.625,-299.5,0.3758,0.7905,0.226,-0.4276
-11.92,2.08,-4.58,107.125,-90.125,-324.0625,0.3577,0.7828,0.2413,-0.4484
-16.53,3.27,-5.81,113.4375,-117.3125,-347.9375,0.3577,0.7828,0.2413,-0.4484
-19.85,5.13,-6.5,108.9375,-112.8125,-362.6875,0.3389,0.774,0.2576,-0.4687
-20.56,8.11,-5.35,106.5,-77.5625,-366.5625,0.2964,0.7585,0.2935,-0.5007
-19.79,8.83,-3.93,116.875,-27.375,-374.6875,0.2709,0.7518,0.313,-0.5132
-18.5,9.5,-2.52,134.1875,4.9375,-394.0,0.2437,0.744,0.3325,-0.5259
-17.19,10.36,-0.91,145.5,3.6875,-409.1875,0.2437,0.744,0.3325,-0.5259
-13.07,12.03,0.75,149.875,-22.0,-417.5625,0.2161,0.7339,0.3514,-0.5397
-11.84,12.64,1.66,152.0625,-52.6875,-425.5,0.1616,0.7051,0.3876,-0.5714
-9.49,13.39,1.95,150.1875,-88.5625,-439.25,0.1353,0.6863,0.4055,-0.5884
-7.74,13.52,1.67,141.875,-113.5,-446.9375,0.1093,0.666,0.4238,-0.6041
-5.49,13.7,1.49,126.0625,-115.4375,-452.4375,0.1093,0.666,0.4238,-0.6041
-4.19,14.3,2.04,101.0625,-100.1875,-448.5,0.0842,0.6452,0.4426,-0.6171
-3.04,14.92,2.63,75.0,-67.8125,-426.8125,0.0376,0.6089,0.4789,-0.6312
-2.18,15.29,3.84,52.375,-24.6875,-397.0,0.0154,0.5953,0.4957,-0.6322
-1.19,16.05,4.35,34.125,23.375,-363.875,-0.006,0.5858,0.5103,-0.6296
0.52,16.26,5.34,24.4375,74.5625,-319.5625,-0.006,0.5858,0.5103,-0.6296
2.73,16.12,6.1,24.8125,121.375,-256.5,-0.0261,0.5809,0.5215,-0.6244
7.92,14.54,7.32,26.4375,149.75,-185.625,-0.0437,0.5805,0.5287,-0.6177
9.9,14.08,7.34,24.6875,151.8125,-124.6875,-0.0582,0.5826,0.533,-0.6108
12.14,13.9,7.08,22.0625,130.125,-82.9375,-0.0695,0.5855,0.5352,-0.6049
14.01,12.66,5.68,20.0,102.5625,-47.375,-0.0775,0.5884,0.5359,-0.6005
14.23,12.08,4.9,13.0,76.25,-23.1875,-0.0828,0.5912,0.5359,-0.597
13.81,11.51,4.3,-3.0,59.5,-7.5,-0.0857,0.5938,0.536,-0.5939
13.25,10.99,3.81,-22.1875,53.0,14.625,-0.0862,0.5973,0.536,-0.5903
12.61,10.5,3.04,-40.8125,53.1875,46.875,-0.0842,0.6024,0.5353,-0.5861
12.78,10.52,2.9,-57.8125,56.5,87.5625,-0.0795,0.6095,0.5333,-0.5812
13.21,10.65,2.92,-71.8125,54.625,128.625,-0.072,0.6184,0.5297,-0.576
13.44,10.7,3.04,-80.25,40.9375,164.25,-0.0616,0.6282,0.5247,-0.5712
13.3,10.92,3.56,-83.125,15.3125,193.4375,-0.0485,0.6378,0.5183,-0.5676
13.3,10.79,4.1,-83.375,-11.375,219.875,-0.033,0.6471,0.5104,-0.5654
12.59,10.79,4.21,-85.5,-29.625,239.75,-0.0156,0.6561,0.5013,-0.5638
10.03,12.06,3.0,-89.9375,-41.0,248.4375,0.003,0.6646,0.4918,-0.5625
8.24,12.55,2.52,-94.8125,-46.5,252.5,0.0222,0.6727,0.482,-0.5609
6.03,12.85,2.15,-100.125,-48.5625,253.5,0.0419,0.6804,0.4721,-0.559
3.52,13.38,1.95,-103.625,-49.375,247.4375,0.0615,0.6873,0.4625,-0.5567
-0.18,14.33,2.77,-101.75,-47.25,246.125,0.0808,0.694,0.4526,-0.554
-1.91,13.5,3.26,-91.5,-39.0625,265.6875,0.1,0.7015,0.4409,-0.5508
-2.79,12.77,3.78,-77.8125,-26.5,285.5625,0.1189,0.71,0.4273,-0.5469
-2.38,11.33,3.21,-66.8125,-9.75,303.0,0.1372,0.7196,0.4119,-0.5419
-3.57,10.19,2.27,-57.875,16.4375,318.8125,0.1547,0.7305,0.3953,-0.535
-4.66,9.8,1.77,-56.0625,46.3125,311.5,0.1707,0.742,0.379,-0.5259
-4.89,9.54,1.29,-61.0,65.0625,301.3125,0.1857,0.7534,0.3637,-0.5154
-4.26,7.75,1.12,-64.1875,74.1875,313.875,0.2011,0.765,0.3475,-0.5036
-3.07,6.53,1.05,-72.0625,74.9375,331.1875,0.2175,0.7763,0.3303,-0.4908
-4.74,4.98,-0.93,-89.0625,77.5625,344.25,0.2354,0.7871,0.3127,-0.4767
-14.18,7.21,-1.73,-121.875,84.9375,339.3125,0.2548,0.7967,0.2966,-0.4608
-12.67,8.42,-1.94,-162.4375,59.5625,338.5625,0.2772,0.8036,0.2813,-0.4453
