lin_acc_x,lin_acc_y,lin_acc_z,gyro_x,gyro_y,gyro_z,quat_w,quat_x,quat_y,quat_z
5.24,11.52,2.87,-62.4375,-84.125,68.3125,-0.5485,0.2612,-0.7688,-0.1999
3.79,10.01,1.52,-55.625,-63.9375,76.875,-0.55,0.2576,-0.7665,-0.2084
3.32,8.29,0.87,-70.8125,-24.0625,110.875,-0.5481,0.2533,-0.7665,-0.2187
4.29,7.37,0.78,-103.625,16.5625,158.0625,-0.5418,0.2482,-0.7687,-0.2324
4.31,8.04,0.99,-136.6875,44.4375,197.8125,-0.5321,0.2424,-0.772,-0.2493
3.98,8.7,1.22,-162.875,57.8125,219.875,-0.5202,0.2365,-0.7755,-0.2686
3.37,8.81,1.39,-182.25,61.9375,229.625,-0.5071,0.2308,-0.7784,-0.2892
1.48,8.73,1.48,-195.0,61.625,238.375,-0.4933,0.2249,-0.7806,-0.311
1.51,7.66,1.66,-207.125,52.9375,251.6875,-0.4791,0.2183,-0.7819,-0.334
-0.98,10.27,0.89,-210.4375,40.75,262.4375,-0.4648,0.2105,-0.7821,-0.3576
-1.02,8.49,1.57,-224.625,32.5625,345.6875,-0.448,0.1973,-0.7823,-0.3852
2.39,10.95,1.52,-221.375,7.3125,367.125,-0.4316,0.1816,-0.7809,-0.4133
0.64,12.05,0.6,-208.3125,-28.5625,326.0,-0.4187,0.1666,-0.7772,-0.4391
-2.89,12.17,-0.19,-224.5625,-79.6875,338.125,-0.408,0.1493,-0.7704,-0.4667
-5.21,15.0,0.61,-247.4375,-105.1875,395.375,-0.3958,0.1278,-0.7614,-0.4973
-7.64,15.74,-1.43,-235.75,-68.5,447.125,-0.3785,0.104,-0.7533,-0.5277
-10.96,15.03,-4.4,-202.5625,-0.9375,438.25,-0.357,0.0825,-0.7474,-0.5541
-12.86,10.2,-9.35,-190.1875,60.625,398.75,-0.3329,0.0658,-0.7426,-0.5773
-11.63,8.04,-10.2,-196.1875,104.1875,383.125,-0.3064,0.0524,-0.7376,-0.5994
-10.11,7.02,-10.04,-200.875,129.125,377.8125,-0.2781,0.0405,-0.7319,-0.6207
-8.97,6.74,-9.28,-197.6875,132.0625,353.8125,-0.2505,0.0302,-0.7254,-0.6404
-7.32,6.2,-7.16,-188.25,110.1875,310.0625,-0.2264,0.0211,-0.718,-0.6578
-7.4,5.92,-6.55,-178.0625,67.8125,263.25,-0.2073,0.0123,-0.7096,-0.6733
-7.68,5.63,-6.53,-165.75,19.875,232.1875,-0.1927,0.0024,-0.7006,-0.6871
-7.66,5.23,-6.77,-150.0625,-22.375,215.8125,-0.1814,-0.0092,-0.6913,-0.6993
-5.64,4.35,-6.15,-130.6875,-60.375,203.125,-0.173,-0.0226,-0.6824,-0.7098
-4.92,3.36,-5.89,-110.6875,-89.5625,188.625,-0.167,-0.0372,-0.674,-0.7187
-4.86,2.18,-5.7,-92.9375,-100.3125,166.8125,-0.1628,-0.0515,-0.6663,-0.7259
-5.36,0.23,-5.37,-76.6875,-94.6875,137.3125,-0.1601,-0.064,-0.6595,-0.7316
-5.56,-1.09,-5.11,-63.375,-82.5,107.9375,-0.1583,-0.0742,-0.6539,-0.7361
-5.68,-0.78,-4.16,-47.8125,-77.5625,85.0,-0.1577,-0.0831,-0.6493,-0.7394
-4.86,-2.26,-4.4,-12.0,-77.625,59.9375,-0.1582,-0.0911,-0.6471,-0.7402
-7.31,-3.93,-4.01,-12.125,-76.8125,42.25,-0.1599,-0.098,-0.645,-0.7408
-4.86,-8.51,-4.46,-20.1875,-71.375,79.4375,-0.1589,-0.1065,-0.642,-0.7424
-4.74,-5.13,-3.11,-42.0,-72.3125,63.0625,-0.1593,-0.1139,-0.6378,-0.7449
-6.71,-3.05,-3.76,2.0625,-83.8125,56.25,-0.1602,-0.1223,-0.6363,-0.7447
-7.63,-5.73,-4.07,51.6875,-73.4375,53.875,-0.1603,-0.1304,-0.6379,-0.7418
-7.54,-6.71,-4.01,47.6875,-42.25,45.1875,-0.1592,-0.1362,-0.6399,-0.7394
-7.22,-7.21,-4.44,46.125,-12.5,54.5625,-0.1559,-0.1406,-0.642,-0.7375
-6.91,-8.17,-5.08,51.6875,6.75,64.625,-0.1509,-0.1443,-0.6445,-0.7356
-7.47,-8.19,-4.97,44.6875,11.6875,47.25,-0.1468,-0.1467,-0.6468,-0.7339
-8.46,-7.85,-4.64,29.0625,3.125,10.25,-0.1456,-0.1475,-0.6485,-0.7325
-9.72,-7.17,-4.47,17.6875,-12.1875,-13.0,-0.1469,-0.1477,-0.6496,-0.7311
-10.32,-6.54,-4.37,13.25,-24.4375,-11.875,-0.1487,-0.1487,-0.6503,-0.73
-9.42,-6.11,-4.06,9.0,-28.3125,-11.5625,-0.1509,-0.15,-0.6506,-0.729
-8.38,-5.67,-3.47,4.6875,-29.1875,-21.75,-0.1538,-0.1506,-0.6508,-0.7281
-9.16,-5.03,-3.89,6.75,-27.25,-41.6875,-0.1578,-0.1501,-0.6514,-0.7268
-10.39,-4.39,-4.59,12.125,-20.5,-72.6875,-0.1632,-0.1475,-0.6528,-0.7249
-10.92,-3.55,-5.06,18.375,-16.3125,-102.0625,-0.1702,-0.1431,-0.655,-0.7222
-10.48,-2.85,-5.14,25.8125,-19.875,-117.8125,-0.1781,-0.1382,-0.6577,-0.7188
-8.52,-2.22,-5.06,32.625,-30.5625,-124.9375,-0.187,-0.1335,-0.6606,-0.7147
-7.8,-1.8,-5.05,35.5,-45.375,-134.0625,-0.1972,-0.1294,-0.6635,-0.7101
-7.35,-1.14,-5.06,34.125,-62.6875,-147.5,-0.2092,-0.1254,-0.666,-0.705
-7.62,0.73,-4.9,32.4375,-76.375,-162.375,-0.2228,-0.1214,-0.6682,-0.6993
-7.93,1.86,-4.78,34.4375,-85.3125,-177.75,-0.2377,-0.1171,-0.6704,-0.6931
-8.25,3.09,-4.55,41.875,-90.4375,-194.375,-0.2538,-0.1122,-0.6729,-0.6858
-8.36,4.48,-4.21,54.5625,-96.875,-209.9375,-0.2709,-0.107,-0.6758,-0.6771
-8.87,6.8,-3.98,67.8125,-105.5,-220.8125,-0.2888,-0.1019,-0.6791,-0.6671
-8.94,7.8,-4.12,75.875,-115.5,-227.5625,-0.3076,-0.0972,-0.6823,-0.6561
-9.21,8.92,-4.55,77.1875,-125.375,-236.5625,-0.3271,-0.0925,-0.6851,-0.6442
-10.51,10.76,-5.59,77.1875,-130.875,-253.625,-0.3478,-0.0871,-0.6874,-0.6315
-10.3,10.98,-5.32,83.0625,-124.3125,-274.0,-0.369,-0.0802,-0.69,-0.6176
-9.48,10.1,-4.61,99.4375,-108.125,-291.0,-0.3896,-0.072,-0.6935,-0.6017
-8.01,8.83,-3.69,118.5625,-92.625,-307.875,-0.4098,-0.0625,-0.6981,-0.5838
-6.43,6.78,-2.69,133.0625,-89.375,-325.1875,-0.4302,-0.0523,-0.7029,-0.564
-5.7,6.57,-2.52,135.25,-100.8125,-346.5,-0.4518,-0.0414,-0.7069,-0.5426
-5.3,6.79,-2.5,127.1875,-119.625,-368.1875,-0.4751,-0.0298,-0.709,-0.5203
-5.15,7.29,-2.64,110.125,-132.3125,-387.5625,-0.4995,-0.0168,-0.709,-0.4974
-6.45,8.86,-2.47,87.0,-128.9375,-398.25,-0.5235,-0.002,-0.7074,-0.4749
-6.96,10.36,-2.56,65.8125,-105.0,-390.6875,-0.5451,0.0142,-0.705,-0.4534
-7.05,11.81,-2.32,54.125,-60.8125,-360.625,-0.5623,0.0308,-0.7036,-0.4335
-4.69,11.39,-1.51,49.8125,-4.5,-318.5625,-0.5742,0.0472,-0.704,-0.4152
-2.69,10.89,-0.75,43.375,51.875,-292.0,-0.5813,0.0643,-0.7067,-0.3981
-1.27,10.74,0.17,36.8125,91.0625,-284.5,-0.5854,0.0825,-0.7106,-0.3813
-0.46,10.56,0.93,33.375,104.6875,-274.75,-0.5881,0.1006,-0.7147,-0.3649
0.54,9.6,1.63,31.5,103.8125,-259.625,-0.5899,0.1179,-0.7184,-0.3492
1.37,9.26,1.8,30.0625,99.375,-244.1875,-0.5912,0.1342,-0.7217,-0.3341
2.35,8.93,1.93,27.3125,91.0625,-229.8125,-0.5923,0.1494,-0.7242,-0.3198
4.08,7.74,1.66,23.75,78.8125,-216.0,-0.5936,0.1635,-0.726,-0.3065
4.79,7.4,1.63,20.1875,68.0625,-204.8125,-0.5948,0.1767,-0.727,-0.294
5.41,7.19,1.56,17.875,63.0625,-198.0625,-0.5961,0.1895,-0.7275,-0.282
5.85,7.14,1.88,15.0,65.8125,-190.9375,-0.5967,0.202,-0.728,-0.2703
9.25,6.2,2.67,13.5,73.0625,-180.9375,-0.5965,0.2141,-0.7288,-0.2591
10.37,6.89,3.18,12.3125,78.25,-184.4375,-0.5959,0.2266,-0.7296,-0.2476
10.82,6.94,3.5,13.4375,77.3125,-168.6875,-0.5948,0.2379,-0.7305,-0.2368
11.86,5.66,4.13,11.4375,73.9375,-137.625,-0.5932,0.2472,-0.7316,-0.2277
13.48,5.0,4.25,7.125,78.375,-103.4375,-0.5905,0.2548,-0.7334,-0.2204
14.9,4.45,4.5,2.0,92.375,-78.375,-0.5862,0.2612,-0.7363,-0.2144
15.77,4.34,4.99,-8.3125,100.0,-69.75,-0.5811,0.2678,-0.7396,-0.2092
15.84,4.91,5.58,-19.3125,89.375,-64.6875,-0.5761,0.2743,-0.7421,-0.2052
15.21,5.29,5.4,-23.5625,66.1875,-50.0625,-0.5723,0.2797,-0.7438,-0.2027
14.55,5.48,5.14,-22.4375,42.375,-25.9375,-0.5695,0.2832,-0.7448,-0.2018
14.02,5.54,4.83,-23.625,26.125,3.625,-0.5673,0.2845,-0.7457,-0.2029
13.31,5.78,4.43,-30.25,15.8125,35.25,-0.5649,0.2841,-0.7468,-0.2061
12.9,5.93,4.44,-40.0,6.8125,65.375,-0.5624,0.2819,-0.748,-0.2115
12.44,6.05,4.5,-50.0,-3.25,91.9375,-0.5597,0.2784,-0.7491,-0.2192
11.38,6.56,4.63,-59.1875,-13.0,115.125,-0.557,0.2737,-0.7501,-0.2286
10.86,6.73,4.74,-67.75,-21.625,135.25,-0.5541,0.2679,-0.7508,-0.2398
10.51,6.83,4.89,-75.3125,-28.0,152.375,-0.551,0.2611,-0.7513,-0.2523
10.06,6.87,5.01,-82.125,-31.8125,167.75,-0.5476,0.2536,-0.7517,-0.266
8.52,7.24,4.61,-86.75,-29.875,180.8125,-0.5435,0.2454,-0.7521,-0.2805
7.54,7.3,4.29,-90.5,-23.6875,191.875,-0.5385,0.2368,-0.7527,-0.2955
6.71,7.51,3.89,-97.4375,-15.5625,203.75,-0.5323,0.2278,-0.7535,-0.3112
5.43,8.46,2.93,-107.25,-5.0,220.375,-0.5247,0.2184,-0.7546,-0.3279
5.01,8.91,2.71,-117.1875,5.875,242.75,-0.5153,0.2083,-0.7559,-0.346
5.21,9.25,3.18,-125.6875,12.8125,265.25,-0.5044,0.1971,-0.7572,-0.3652
2.99,10.3,1.88,-129.0,22.625,292.0,-0.4916,0.1846,-0.7588,-0.3854
4.15,12.39,4.0,-162.375,32.9375,344.1875,-0.4755,0.1702,-0.7598,-0.4094
3.93,15.2,3.81,-165.375,19.4375,355.875,-0.4593,0.1547,-0.7596,-0.4338
0.0,16.55,3.26,-141.9375,-4.9375,356.375,-0.4445,0.137,-0.7584,-0.4565
-2.22,15.91,2.28,-123.75,-31.4375,377.25,-0.4303,0.1162,-0.7564,-0.4787
-3.42,13.79,1.82,-126.0,-40.75,393.0,-0.4155,0.094,-0.7532,-0.5012
-4.49,13.53,0.53,-137.875,-36.8125,413.1875,-0.399,0.0709,-0.7489,-0.5244
-6.27,13.82,-1.37,-130.625,-31.6875,419.0,-0.3814,0.0474,-0.744,-0.5466
-8.81,12.05,-5.05,-114.75,-27.6875,392.375,-0.3643,0.0251,-0.739,-0.5662
-8.79,10.37,-5.68,-116.5625,-20.625,332.3125,-0.3493,0.007,-0.7332,-0.5835
-10.34,10.72,-6.02,-135.5625,-16.9375,259.375,-0.3374,-0.0059,-0.7259,-0.5994
-13.65,11.33,-5.13,-154.25,-15.375,248.3125,-0.3257,-0.0175,-0.7173,-0.6157
-11.71,9.15,-4.11,-130.125,-6.0,275.5625,-0.3119,-0.0309,-0.7097,-0.6309
-10.15,8.52,-4.19,-96.0625,18.625,244.0625,-0.2979,-0.0421,-0.7043,-0.643
-10.01,7.23,-4.8,-80.0,22.9375,208.5,-0.2855,-0.0511,-0.6996,-0.653
-8.18,3.86,-5.24,-87.0625,5.4375,208.375,-0.274,-0.061,-0.6939,-0.6631
-6.13,1.19,-5.23,-88.625,-20.8125,197.9375,-0.2645,-0.0718,-0.6874,-0.6726
-6.92,2.89,-4.06,-84.0625,-49.75,139.5625,-0.2599,-0.0808,-0.6805,-0.6802
-7.56,2.31,-4.68,-50.625,-74.0,110.375,-0.2582,-0.0903,-0.6752,-0.6851
-7.05,0.2,-3.67,-50.625,-80.4375,126.75,-0.2558,-0.1011,-0.6695,-0.69
-4.56,-0.72,-3.32,-47.875,-79.875,163.125,-0.2512,-0.1139,-0.6635,-0.6955
-3.6,-1.61,-3.18,-11.75,-79.4375,136.25,-0.2477,-0.126,-0.6597,-0.6982
-4.46,-1.71,-3.09,14.8125,-93.4375,72.375,-0.2485,-0.1358,-0.6579,-0.6979
-6.86,-2.99,-3.35,40.1875,-111.6875,48.125,-0.2514,-0.1459,-0.6573,-0.6953
-7.54,-5.02,-3.81,63.4375,-110.5,59.6875,-0.2532,-0.157,-0.6579,-0.6917
-7.32,-7.51,-4.22,63.875,-94.875,53.875,-0.2545,-0.1669,-0.6589,-0.6879
-7.0,-8.32,-3.68,26.6875,-82.875,31.3125,-0.2569,-0.1741,-0.6581,-0.686
-7.4,-7.49,-3.39,-8.25,-80.1875,38.75,-0.2592,-0.1807,-0.6553,-0.686
-7.68,-6.58,-3.39,-15.8125,-75.4375,64.8125,-0.2599,-0.1883,-0.6518,-0.6872
-7.69,-5.88,-3.36,-2.5,-60.0625,74.25,-0.2589,-0.1958,-0.6491,-0.688
-8.03,-6.51,-3.91,21.25,-44.875,48.5625,-0.2582,-0.2015,-0.6486,-0.6871
-8.55,-7.19,-4.14,34.5,-40.375,15.3125,-0.2589,-0.2055,-0.6494,-0.6849
-8.98,-7.89,-4.27,38.3125,-43.4375,-0.3125,-0.2607,-0.2089,-0.6506,-0.682
-9.34,-8.26,-4.07,31.375,-45.875,-8.0625,-0.2631,-0.2117,-0.6516,-0.6793
-9.17,-7.85,-3.93,15.875,-42.6875,-14.0625,-0.2659,-0.2137,-0.6518,-0.6773
-9.06,-7.17,-3.97,2.75,-36.25,-21.0625,-0.2691,-0.2147,-0.6515,-0.676
-8.98,-6.61,-3.99,-2.125,-33.375,-28.1875,-0.2726,-0.215,-0.6511,-0.6749
-8.43,-6.29,-3.85,-7.9375,-41.4375,-45.1875,-0.2776,-0.2147,-0.6505,-0.6735
-8.95,-5.21,-3.84,-12.375,-61.4375,-66.125,-0.285,-0.2143,-0.6496,-0.6715
-9.78,-4.48,-4.13,4.375,-84.375,-73.25,-0.2936,-0.2151,-0.6491,-0.668
-10.12,-3.97,-4.62,26.9375,-98.625,-78.75,-0.303,-0.217,-0.6495,-0.6627
-9.8,-3.73,-4.83,41.8125,-101.9375,-93.75,-0.313,-0.2187,-0.6509,-0.6561
-9.35,-3.63,-4.74,53.6875,-102.9375,-106.5625,-0.3236,-0.2199,-0.6531,-0.6483
-8.69,-3.56,-4.14,58.4375,-108.625,-116.0625,-0.3348,-0.2211,-0.6555,-0.6398
-8.88,-2.5,-4.34,53.3125,-110.9375,-130.625,-0.347,-0.2213,-0.6575,-0.631
-10.1,0.0,-4.62,47.4375,-106.5,-148.0625,-0.3599,-0.2201,-0.6597,-0.622
-7.86,-3.17,-4.33,27.4375,-95.875,-146.4375,-0.3724,-0.2178,-0.6608,-0.6142
-7.47,3.77,-2.25,24.8125,-100.4375,-221.375,-0.3889,-0.2114,-0.6629,-0.6039
-15.58,4.71,-2.79,77.9375,-92.125,-255.9375,-0.4056,-0.2043,-0.6682,-0.5893
-15.63,3.72,-2.75,63.8125,-65.5625,-205.25,-0.4183,-0.1981,-0.6725,-0.5774
-13.72,5.5,-2.69,18.5,-28.5625,-168.5625,-0.4279,-0.1906,-0.6752,-0.5698
-10.86,11.78,-2.56,2.75,-6.6875,-179.3125,-0.4368,-0.1807,-0.6779,-0.563
-11.64,12.62,-2.37,5.25,-9.6875,-217.1875,-0.4475,-0.1689,-0.681,-0.5545
-11.8,11.55,-2.06,11.875,-9.4375,-245.6875,-0.4593,-0.1556,-0.6846,-0.5443
-11.2,10.67,-1.43,13.875,3.0,-282.3125,-0.4717,-0.1396,-0.6888,-0.5324
-9.27,8.98,-0.26,14.0,15.875,-306.0625,-0.4843,-0.1216,-0.6935,-0.5194
-8.19,8.83,-0.03,5.1875,23.75,-317.0625,-0.4966,-0.1022,-0.6977,-0.5062
-7.32,8.84,0.0,-7.1875,33.5625,-329.9375,-0.5085,-0.081,-0.7014,-0.4929
-5.69,8.67,0.37,-19.125,49.0,-349.3125,-0.5201,-0.0574,-0.7048,-0.4791
-4.38,8.83,0.74,-31.375,66.375,-371.5625,-0.5311,-0.0312,-0.7078,-0.4647
-3.47,9.27,1.05,-41.1875,80.625,-391.1875,-0.5414,-0.0028,-0.7104,-0.4496
-3.22,10.07,1.35,-45.6875,89.3125,-396.875,-0.5508,0.0265,-0.7125,-0.434
-4.21,11.89,1.89,-38.125,97.9375,-369.375,-0.558,0.054,-0.7144,-0.4186
-2.56,11.17,1.95,-12.75,116.125,-305.5,-0.5616,0.0771,-0.7178,-0.4043
-0.02,10.45,2.2,13.125,143.9375,-260.875,-0.5616,0.0972,-0.7231,-0.3901
3.41,9.12,2.77,28.1875,158.4375,-251.5625,-0.5603,0.1165,-0.7293,-0.375
4.34,8.6,2.88,36.8125,150.125,-242.8125,-0.559,0.1344,-0.7349,-0.3597
4.84,8.15,2.86,39.6875,134.75,-228.0,-0.5578,0.1507,-0.7397,-0.3448
5.47,7.76,2.85,39.875,120.875,-211.875,-0.5568,0.1655,-0.7437,-0.3307
7.1,6.78,2.63,38.4375,107.375,-200.9375,-0.5562,0.1793,-0.7469,-0.3173
7.89,6.48,2.62,36.125,91.8125,-192.6875,-0.556,0.1922,-0.7491,-0.3045
8.36,6.49,2.77,35.125,74.875,-186.375,-0.5565,0.2043,-0.7504,-0.2923
9.05,6.12,2.87,36.8125,59.3125,-178.125,-0.5577,0.2153,-0.751,-0.2805
11.18,5.96,3.2,39.0,46.75,-178.3125,-0.5596,0.2258,-0.7507,-0.2687
11.35,5.92,3.45,43.25,35.25,-177.125,-0.5621,0.2358,-0.7499,-0.257
11.29,5.62,3.66,47.1875,22.3125,-157.25,-0.565,0.244,-0.7488,-0.246
12.1,4.97,3.65,48.125,13.1875,-124.125,-0.5677,0.2498,-0.7479,-0.2368
12.6,5.17,3.73,44.5,11.75,-91.9375,-0.5697,0.2537,-0.7473,-0.2292
12.87,5.46,3.86,38.0,9.6875,-66.5625,-0.5712,0.2562,-0.7471,-0.2234
12.83,5.7,3.81,29.875,4.5,-44.625,-0.5724,0.2577,-0.7469,-0.2193
12.4,5.95,3.54,22.0,-2.125,-21.5,-0.5734,0.2579,-0.7467,-0.2169
12.24,6.11,3.13,17.8125,-5.9375,-0.5625,-0.5742,0.257,-0.7468,-0.2159
12.04,6.22,2.77,15.5625,-4.75,17.625,-0.5745,0.255,-0.7472,-0.2159
11.4,6.38,2.68,11.875,-1.4375,35.1875,-0.5742,0.2522,-0.7481,-0.2169
10.98,6.34,2.94,6.1875,2.1875,55.4375,-0.5732,0.2484,-0.7495,-0.2191
10.61,6.27,3.25,-1.4375,5.3125,78.5625,-0.5714,0.2436,-0.7513,-0.2229
10.32,6.22,3.53,-10.625,6.4375,101.0625,-0.5688,0.2378,-0.7535,-0.2283
9.7,6.11,3.77,-19.8125,5.0,121.75,-0.5657,0.2311,-0.7558,-0.2354
9.37,5.85,3.81,-26.625,1.5625,139.25,-0.5623,0.2235,-0.758,-0.2437
9.02,5.55,3.76,-32.625,-3.5625,153.25,-0.5587,0.2151,-0.76,-0.2531
8.48,5.29,3.76,-38.75,-10.75,165.5625,-0.5551,0.2061,-0.7616,-0.2635
7.08,5.68,3.39,-46.6875,-21.6875,175.625,-0.5516,0.1965,-0.7625,-0.2751
6.53,5.96,3.01,-58.0,-33.25,187.0,-0.5484,0.1863,-0.7626,-0.2881
5.95,6.25,2.62,-70.375,-39.8125,204.375,-0.5448,0.1754,-0.7621,-0.3027
4.8,7.21,2.31,-80.5625,-39.25,224.75,-0.5403,0.1636,-0.7614,-0.3187
5.29,7.34,3.53,-89.5625,-34.0,240.75,-0.5346,0.1513,-0.7606,-0.3358
1.91,8.88,1.05,-81.125,-28.0625,246.0,-0.5283,0.1383,-0.7599,-0.3524
0.49,5.62,2.85,-106.0,-2.1875,310.8125,-0.5178,0.123,-0.7601,-0.373
5.39,9.87,5.21,-118.0,16.8125,341.375,-0.5045,0.1067,-0.7603,-0.3951
3.83,11.48,4.83,-78.1875,12.375,302.3125,-0.4927,0.091,-0.7607,-0.4128
0.87,12.23,4.0,-67.8125,-20.25,272.375,-0.4838,0.0756,-0.7593,-0.4285
-2.23,13.0,2.94,-92.1875,-53.25,287.25,-0.4761,0.059,-0.7554,-0.4464
-3.06,12.94,1.65,-106.1875,-63.5,316.8125,-0.4675,0.0406,-0.7501,-0.466
-4.19,12.49,-0.09,-102.625,-55.4375,327.0625,-0.4576,0.0218,-0.7447,-0.4854
-5.56,11.58,-1.21,-107.875,-44.875,329.75,-0.4465,0.0034,-0.7388,-0.5048
-6.92,10.15,-1.97,-119.625,-38.0,346.875,-0.4338,-0.0154,-0.732,-0.5251
-7.36,9.74,-2.09,-117.4375,-27.25,367.0625,-0.4191,-0.035,-0.7249,-0.5455
-7.7,9.65,-2.35,-103.75,-12.0,368.9375,-0.403,-0.0544,-0.7183,-0.5646
-7.41,9.53,-2.58,-93.6875,-0.4375,351.75,-0.3865,-0.0725,-0.7119,-0.582
-7.43,8.96,-2.73,-86.9375,2.0625,331.8125,-0.3704,-0.0895,-0.7053,-0.5978
-7.51,8.37,-3.15,-75.25,-4.5,307.8125,-0.3556,-0.1057,-0.6988,-0.6116
-7.79,7.96,-3.3,-64.8125,-17.5625,274.0,-0.343,-0.1208,-0.6923,-0.6234
-8.04,6.72,-3.38,-55.6875,-33.3125,239.75,-0.3328,-0.1349,-0.6857,-0.6331
-7.97,5.73,-3.37,-45.5625,-46.625,211.125,-0.3246,-0.1483,-0.6795,-0.6411
-7.61,4.7,-3.21,-35.1875,-54.25,186.8125,-0.3181,-0.161,-0.6736,-0.6474
-7.07,3.7,-2.99,-24.875,-58.875,164.0625,-0.3127,-0.1729,-0.6684,-0.6523
-5.91,1.88,-2.63,-16.0625,-63.9375,141.125,-0.3088,-0.1839,-0.6637,-0.656
-5.63,1.07,-2.64,-7.8125,-72.375,118.5625,-0.3063,-0.1943,-0.6595,-0.6584
-5.6,0.04,-2.38,0.4375,-84.875,98.8125,-0.3055,-0.2046,-0.6556,-0.6595
-5.37,-0.88,-1.51,5.625,-104.0625,70.125,-0.3073,-0.2144,-0.652,-0.6591
-7.04,-1.81,-1.92,12.625,-125.25,43.5,-0.3115,-0.2241,-0.6486,-0.6573
-7.4,-3.97,-2.2,26.125,-129.125,62.4375,-0.3146,-0.2354,-0.6454,-0.655
-6.89,-4.71,-1.96,25.25,-116.25,80.3125,-0.316,-0.2468,-0.6422,-0.6534
-5.67,-6.85,-1.9,17.875,-96.125,91.875,-0.3157,-0.2576,-0.6386,-0.6528
-4.84,-7.2,-2.22,16.9375,-86.8125,88.125,-0.3152,-0.2675,-0.6353,-0.6523
-5.67,-7.03,-2.36,19.5625,-91.0625,57.5,-0.3164,-0.2762,-0.6326,-0.6507
-8.09,-7.15,-2.3,5.4375,-91.0,38.75,-0.319,-0.2834,-0.6295,-0.6493
-10.05,-5.45,-1.76,-21.3125,-73.8125,44.25,-0.321,-0.2892,-0.6253,-0.6498
-10.32,-5.8,-1.95,-16.4375,-35.6875,87.0625,-0.3185,-0.2953,-0.6213,-0.6522
-9.77,-6.4,-2.25,0.8125,9.5625,106.0,-0.3121,-0.3004,-0.6189,-0.6552
-8.96,-7.1,-2.34,4.125,36.4375,85.0,-0.3054,-0.3029,-0.6179,-0.6581
-9.04,-7.4,-2.21,-4.8125,36.875,61.9375,-0.3002,-0.3039,-0.617,-0.6609
-9.17,-7.32,-1.95,-24.0,24.9375,52.375,-0.2966,-0.3046,-0.6149,-0.6641
-9.4,-6.66,-1.85,-42.875,17.0625,48.875,-0.294,-0.3052,-0.6117,-0.668
-10.0,-4.68,-1.83,-50.25,17.6875,39.4375,-0.2922,-0.3049,-0.6083,-0.6721
-10.1,-3.86,-1.99,-41.6875,21.8125,20.5,-0.291,-0.3037,-0.6059,-0.6752
-9.9,-3.49,-2.13,-22.125,22.625,-4.875,-0.2906,-0.3016,-0.6053,-0.6768
-8.86,-3.37,-2.91,-0.3125,14.6875,-35.25,-0.2919,-0.299,-0.6066,-0.6763
-8.47,-3.27,-3.35,14.9375,-2.3125,-64.3125,-0.2953,-0.2962,-0.609,-0.674
-8.1,-2.95,-3.77,20.375,-29.4375,-87.3125,-0.3013,-0.2939,-0.6116,-0.6699
-7.54,-2.49,-3.76,22.0625,-63.3125,-108.125,-0.3101,-0.2924,-0.6139,-0.6644
-8.27,-0.86,-3.59,18.9375,-98.4375,-130.4375,-0.322,-0.2916,-0.6155,-0.6575
-8.38,-0.32,-3.56,9.625,-123.625,-132.375,-0.3356,-0.2919,-0.6159,-0.6503
-8.3,0.21,-3.39,0.75,-133.75,-132.5625,-0.3497,-0.2923,-0.6154,-0.6431
-8.49,1.97,-2.83,-10.125,-131.125,-144.25,-0.3646,-0.2916,-0.6144,-0.636
-8.48,2.95,-2.69,-19.8125,-126.75,-159.625,-0.3802,-0.2894,-0.6133,-0.629
-8.65,3.96,-2.64,-27.875,-122.3125,-178.75,-0.3966,-0.2857,-0.6121,-0.6216
-9.2,5.8,-2.56,-35.5625,-116.25,-202.875,-0.4141,-0.2801,-0.6111,-0.6137
-11.69,9.91,-2.77,-33.0625,-104.625,-226.75,-0.4319,-0.2726,-0.611,-0.6049
-12.08,10.56,-2.92,-19.5625,-82.0,-239.9375,-0.4487,-0.2636,-0.6124,-0.5951
-12.08,10.56,-2.92,-2.5625,-43.875,-241.375,-0.4631,-0.2532,-0.6158,-0.585
-9.73,6.48,-2.06,8.3125,4.875,-245.8125,-0.4747,-0.2405,-0.6215,-0.5749
-9.35,5.89,-1.49,5.125,45.125,-258.0625,-0.4847,-0.2249,-0.6287,-0.5651
-8.72,6.18,-1.04,-6.0,65.0,-270.6875,-0.4941,-0.2071,-0.636,-0.5554
-7.8,7.03,-1.04,-12.0625,72.625,-277.625,-0.5033,-0.1882,-0.6432,-0.5455
-7.8,7.03,-1.04,-9.5625,78.9375,-279.625,-0.5119,-0.1689,-0.6503,-0.5353
-5.09,8.49,-0.39,-6.0,87.5625,-287.1875,-0.52,-0.1489,-0.6577,-0.5243
-4.57,8.77,-0.23,-6.4375,92.5625,-302.4375,-0.5281,-0.1276,-0.665,-0.5123
-4.13,9.39,-0.08,-10.3125,86.0625,-318.25,-0.537,-0.1055,-0.6716,-0.4995
-3.71,9.83,0.81,-9.9375,88.1875,-327.1875,-0.5456,-0.0828,-0.6779,-0.4858
-3.71,9.83,0.81,-6.375,102.0,-325.9375,-0.553,-0.0596,-0.6843,-0.4716
-2.62,9.93,1.61,-5.0,119.875,-321.1875,-0.5587,-0.036,-0.691,-0.4573
-1.45,9.19,2.16,-1.1875,137.1875,-314.1875,-0.5625,-0.0123,-0.6981,-0.4428
-0.7,8.99,2.53,6.8125,150.0625,-307.625,-0.5649,0.0112,-0.7055,-0.4277
0.18,8.9,2.79,15.125,154.25,-303.1875,-0.5665,0.0341,-0.7128,-0.412
1.08,8.87,2.88,23.4375,149.625,-299.9375,-0.5677,0.0562,-0.7197,-0.3957
2.22,7.96,2.51,33.5,138.25,-296.8125,-0.5692,0.0772,-0.7257,-0.3787
2.89,7.65,2.53,42.8125,121.25,-293.875,-0.5712,0.097,-0.7307,-0.361
3.45,7.44,2.49,48.0,101.6875,-288.6875,-0.574,0.1155,-0.7345,-0.3431
4.28,6.82,2.57,47.75,83.5625,-274.8125,-0.577,0.1327,-0.737,-0.3259
5.05,6.78,2.54,47.5,70.375,-253.5625,-0.58,0.1481,-0.7387,-0.3098
5.97,6.7,2.48,50.3125,62.875,-236.375,-0.5828,0.1619,-0.74,-0.2941
7.04,6.72,2.59,53.375,60.5,-228.0,-0.5853,0.175,-0.741,-0.2787
8.68,5.93,2.91,55.6875,62.75,-219.125,-0.5872,0.1874,-0.7421,-0.2634
9.74,5.66,3.26,55.3125,68.0625,-203.5,-0.5883,0.1989,-0.7433,-0.2487
10.75,5.17,3.83,51.5,76.6875,-178.25,-0.588,0.2092,-0.7451,-0.2353
11.56,4.59,4.31,45.875,86.1875,-149.375,-0.5862,0.218,-0.7476,-0.2234
13.13,4.05,4.96,40.6875,90.6875,-126.375,-0.5836,0.2256,-0.7505,-0.213
13.54,4.07,5.19,35.5625,87.75,-105.8125,-0.5806,0.2321,-0.7534,-0.2037
13.71,4.1,5.28,26.375,78.0,-82.9375,-0.5775,0.2374,-0.756,-0.1965
13.41,4.09,4.88,14.4375,63.0,-57.875,-0.5747,0.2415,-0.7581,-0.1915
13.14,4.18,4.4,2.9375,46.625,-32.25,-0.5723,0.2441,-0.7598,-0.1887
12.78,4.33,3.83,-7.4375,34.0625,-5.4375,-0.5701,0.2454,-0.7612,-0.1882
12.42,4.51,3.58,-17.4375,26.4375,22.625,-0.5676,0.2452,-0.7626,-0.1899
11.91,5.08,3.56,-27.8125,21.5,50.3125,-0.5648,0.2437,-0.7642,-0.1937
11.64,5.38,3.71,-38.8125,16.9375,75.4375,-0.5617,0.2409,-0.7659,-0.1995
11.31,5.59,3.89,-47.75,10.3125,97.125,-0.5584,0.2371,-0.7676,-0.2069
10.73,6.05,3.91,-54.25,1.875,115.8125,-0.5551,0.2321,-0.769,-0.2159
10.49,6.08,3.89,-58.75,-7.875,133.0,-0.552,0.2261,-0.7701,-0.226
9.99,5.99,3.79,-63.125,-17.3125,150.75,-0.549,0.2189,-0.7709,-0.2375
9.64,6.14,3.65,-67.1875,-25.9375,165.5625,-0.5461,0.2106,-0.7713,-0.25
8.66,6.55,3.1,-68.8125,-30.9375,178.3125,-0.543,0.2015,-0.7715,-0.2632
8.24,6.71,2.87,-73.875,-32.0,194.5,-0.5394,0.1915,-0.7716,-0.2775
7.82,7.07,2.48,-79.1875,-31.6875,214.9375,-0.5351,0.1803,-0.7716,-0.2929
