lin_acc_x,lin_acc_y,lin_acc_z,gyro_x,gyro_y,gyro_z,quat_w,quat_x,quat_y,quat_z
-2.79,1.65,-1.03,48.5,9.875,-168.1875,0.5496,0.7324,0.132,-0.3796
-2.58,1.65,-0.79,50.125,8.375,-171.875,0.5408,0.733,0.1414,-0.3876
-2.61,1.7,-0.58,51.875,6.3125,-176.9375,0.5317,0.7334,0.1509,-0.3958
-2.69,1.35,-0.3,53.125,5.25,-180.75,0.5222,0.7335,0.1606,-0.4042
-2.76,1.29,-0.08,53.125,5.25,-180.75,0.5125,0.7335,0.1705,-0.4125
-2.46,1.3,0.07,54.6875,6.4375,-183.375,0.5025,0.7335,0.1805,-0.4206
-1.93,1.4,0.11,54.5625,13.125,-184.625,0.4923,0.7333,0.1905,-0.4284
-1.51,1.23,0.19,55.625,13.5,-185.6875,0.4819,0.7331,0.2005,-0.4361
-1.3,1.34,0.18,56.375,12.75,-186.25,0.4712,0.7326,0.2104,-0.4438
-1.21,1.39,0.25,56.375,12.75,-186.25,0.4604,0.7319,0.2203,-0.4515
-0.93,1.24,0.48,57.375,10.875,-187.0,0.4495,0.7308,0.23,-0.4592
-0.49,1.22,0.6,56.0,10.3125,-185.3125,0.4386,0.7297,0.2396,-0.4667
0.0,1.13,0.61,54.6875,11.5625,-182.75,0.4277,0.7284,0.2491,-0.4738
0.52,0.66,0.65,53.5625,11.625,-179.375,0.4169,0.7269,0.2584,-0.4806
0.42,0.5,0.7,53.5625,11.625,-179.375,0.4169,0.7269,0.2584,-0.4806
0.06,0.45,0.79,51.75,11.4375,-176.375,0.4063,0.7253,0.2675,-0.4872
-0.46,0.66,0.82,45.1875,20.875,-172.875,0.3853,0.7217,0.286,-0.4988
-0.14,1.29,0.46,44.0,31.9375,-171.1875,0.3746,0.7203,0.2956,-0.5035
0.25,1.31,0.57,44.75,36.0625,-169.375,0.3637,0.7189,0.3051,-0.5077
0.56,1.21,0.76,44.75,36.0625,-169.375,0.353,0.7173,0.3142,-0.5121
0.61,0.73,1.06,45.1875,30.9375,-167.125,0.3425,0.7151,0.3229,-0.5168
0.67,0.83,0.98,43.75,15.9375,-161.3125,0.3323,0.7126,0.3312,-0.5216
0.73,1.02,0.94,42.9375,11.375,-157.1875,0.3224,0.7098,0.3391,-0.5265
0.93,1.03,0.73,42.1875,8.3125,-154.5625,0.3128,0.7069,0.3466,-0.5314
0.83,1.15,0.7,42.1875,8.3125,-154.5625,0.3032,0.7037,0.3539,-0.5363
0.56,1.22,0.76,42.4375,5.25,-152.9375,0.2938,0.7003,0.361,-0.5413
0.49,1.28,0.86,42.4375,-1.0625,-148.3125,0.2845,0.6967,0.3678,-0.5463
0.61,1.12,1.02,42.125,-2.4375,-144.5625,0.2754,0.6931,0.3743,-0.5512
0.58,1.24,1.08,42.125,-5.3125,-141.8125,0.2665,0.6892,0.3804,-0.5561
0.72,1.39,1.1,42.125,-5.3125,-141.8125,0.2665,0.6892,0.3804,-0.5561
0.77,1.19,1.14,41.6875,-6.125,-139.1875,0.249,0.6815,0.3922,-0.5655
0.68,1.14,1.04,40.9375,-6.0,-131.8125,0.2405,0.6776,0.3976,-0.5699
0.62,1.26,0.58,40.125,-2.75,-128.375,0.2321,0.674,0.403,-0.574
0.36,1.28,0.46,40.4375,0.5,-125.9375,0.2237,0.6704,0.4081,-0.5778
0.75,1.37,0.58,40.4375,0.5,-125.9375,0.2237,0.6704,0.4081,-0.5778
1.19,1.44,0.93,40.25,3.8125,-122.0625,0.2153,0.6671,0.4131,-0.5813
1.46,1.51,1.1,38.125,6.875,-111.5625,0.1993,0.6611,0.4224,-0.5872
1.3,1.48,1.11,37.875,4.875,-108.4375,0.1916,0.6581,0.4266,-0.5901
1.28,1.48,1.02,37.1875,2.125,-105.0625,0.1842,0.655,0.4306,-0.593
1.39,1.46,0.96,37.1875,2.125,-105.0625,0.1842,0.655,0.4306,-0.593
1.17,1.2,0.65,36.0,-0.1875,-100.375,0.1772,0.6519,0.4343,-0.5958
1.16,1.25,0.6,33.9375,-5.5625,-93.375,0.1641,0.6454,0.4411,-0.6016
1.42,1.32,0.51,32.3125,-4.875,-88.25,0.1581,0.6423,0.4442,-0.6043
2.03,1.25,0.69,30.0,-3.125,-81.3125,0.1524,0.6395,0.447,-0.6067
1.89,1.35,0.74,30.0,-3.125,-81.3125,0.1524,0.6395,0.447,-0.6067
1.64,1.43,0.73,28.3125,-1.375,-75.9375,0.147,0.6368,0.4496,-0.6088
1.52,1.48,0.7,26.5,-0.25,-71.5,0.1365,0.6323,0.4547,-0.6123
1.46,1.21,0.5,27.5625,4.5,-72.1875,0.1309,0.6301,0.4575,-0.6135
1.46,1.72,0.56,24.125,10.4375,-75.875,0.126,0.6288,0.4598,-0.6143
1.34,1.98,0.55,21.5625,14.5,-60.75,0.126,0.6288,0.4598,-0.6143
1.88,1.34,0.43,20.125,21.0625,-41.4375,0.122,0.6285,0.4612,-0.6144
2.34,1.85,0.7,17.25,31.625,-40.375,0.1135,0.6292,0.4643,-0.6129
2.41,2.08,1.1,16.3125,35.625,-38.6875,0.11,0.6297,0.4654,-0.6122
2.08,2.11,1.25,15.1875,29.6875,-30.1875,0.1071,0.63,0.4662,-0.6118
1.24,2.07,0.96,13.8125,21.875,-24.0,0.1071,0.63,0.4662,-0.6118
1.05,2.14,0.83,13.0625,15.375,-21.0625,0.1047,0.6301,0.4667,-0.6117
1.06,2.11,0.84,13.3125,9.4375,-19.75,0.1008,0.6296,0.4675,-0.6123
1.45,2.12,0.74,13.0625,4.8125,-17.3125,0.0994,0.6292,0.4676,-0.6128
1.65,2.13,0.74,12.4375,1.75,-13.5,0.0983,0.629,0.4675,-0.6133
1.83,2.1,0.73,11.25,1.5,-9.0,0.0983,0.629,0.4675,-0.6133
2.02,1.91,0.84,9.75,2.9375,-3.8125,0.0974,0.6292,0.4672,-0.6135
2.04,1.75,0.85,7.375,5.4375,1.5625,0.0967,0.6303,0.4662,-0.6132
2.22,1.6,0.93,4.625,8.9375,6.8125,0.0966,0.6317,0.4656,-0.6122
2.4,1.45,0.75,1.25,16.625,13.0625,0.0968,0.634,0.4649,-0.6103
2.85,1.38,0.26,-3.6875,29.4375,21.5625,0.0968,0.634,0.4649,-0.6103
3.16,1.34,0.38,-8.9375,43.1875,32.4375,0.0972,0.6375,0.464,-0.6074
3.36,1.19,0.68,-12.9375,51.8125,45.25,0.1002,0.6465,0.4606,-0.5998
2.22,0.98,0.8,-16.75,50.0,59.8125,0.1038,0.6509,0.4579,-0.5966
0.59,0.84,0.89,-20.25,33.5,73.75,0.1088,0.6542,0.4547,-0.5945
-0.72,0.8,0.7,-22.6875,7.9375,80.8125,0.1088,0.6542,0.4547,-0.5945
-2.5,0.8,0.0,-23.25,-13.1875,80.5625,0.1146,0.6564,0.4512,-0.5936
-2.56,0.81,-0.42,-22.375,-28.6875,74.5,0.1267,0.6578,0.4448,-0.5945
-2.47,0.82,-0.79,-19.5625,-41.6875,66.8125,0.1324,0.6575,0.4415,-0.5961
-2.11,0.77,-0.81,-13.0,-49.6875,61.3125,0.1375,0.6572,0.4378,-0.5979
-0.69,0.46,-0.43,-4.8125,-48.0625,61.4375,0.1375,0.6572,0.4378,-0.5979
-0.67,0.02,0.0,0.1875,-40.6875,71.125,0.1426,0.6578,0.4333,-0.5993
-0.59,0.34,0.56,0.4375,-39.1875,79.75,0.1539,0.6594,0.4238,-0.6016
-1.49,3.04,1.51,-5.6875,-41.8125,79.3125,0.1591,0.6589,0.4204,-0.6031
-3.45,3.89,1.56,-9.25,-47.625,57.875,0.1627,0.656,0.4188,-0.6065
-6.1,3.57,1.32,-5.0,-67.625,17.625,0.1627,0.656,0.4188,-0.6065
-9.12,0.62,0.46,3.3125,-78.3125,-26.5625,0.1639,0.6511,0.4189,-0.6113
-8.72,-0.73,0.09,6.125,-60.5625,-58.1875,0.1594,0.6423,0.4244,-0.6179
-7.76,-1.52,-0.16,4.25,-21.1875,-72.5,0.1547,0.6407,0.4288,-0.6179
-6.35,-1.82,-0.04,0.875,21.1875,-76.25,0.1489,0.6404,0.4337,-0.6161
-3.66,-1.41,-0.14,-1.5625,50.25,-77.375,0.1489,0.6404,0.4337,-0.6161
-2.55,-1.08,-0.14,-1.375,60.9375,-80.5,0.1425,0.6406,0.4389,-0.6137
-1.57,-0.69,-0.04,1.9375,56.25,-86.125,0.1292,0.639,0.4492,-0.6108
-0.25,-0.39,0.0,6.4375,40.4375,-92.4375,0.1228,0.6365,0.4542,-0.6111
-0.12,-0.16,0.11,10.5,20.4375,-97.8125,0.1168,0.6328,0.4589,-0.6126
0.09,0.04,0.16,13.125,1.4375,-100.9375,0.1168,0.6328,0.4589,-0.6126
0.83,0.15,0.04,13.4375,-10.0,-102.8125,0.1111,0.6284,0.4636,-0.6147
1.27,0.05,0.03,10.6875,-11.8125,-98.4375,0.101,0.6201,0.4725,-0.6181
1.91,0.08,-0.07,7.8125,-7.1875,-91.875,0.0963,0.6166,0.4767,-0.619
2.5,0.18,-0.07,4.375,0.375,-85.5,0.092,0.614,0.4808,-0.6193
3.08,0.52,-0.18,0.6875,7.5,-77.375,0.092,0.614,0.4808,-0.6193
3.11,0.66,-0.22,-1.75,13.375,-68.6875,0.0955,0.6058,0.492,-0.6179
3.06,0.73,-0.22,-3.5,19.5625,-60.6875,0.0881,0.6033,0.4987,-0.6161
3.37,0.7,-0.2,-5.1875,25.8125,-52.9375,0.0848,0.6031,0.5015,-0.6144
3.76,0.69,-0.13,-6.75,32.6875,-44.5625,0.0817,0.6037,0.504,-0.6122
4.29,0.8,-0.07,-9.125,41.375,-34.625,0.0817,0.6037,0.504,-0.6122
4.94,0.93,0.02,-11.0625,48.5625,-22.875,0.079,0.6052,0.5061,-0.6094
6.1,0.97,0.2,-12.75,50.625,-8.5625,0.0761,0.6099,0.5082,-0.6033
6.18,0.97,0.28,-13.6875,46.875,7.0625,0.0764,0.6128,0.5079,-0.6006
6.04,0.96,0.33,-14.1875,37.6875,23.25,0.0781,0.6155,0.5068,-0.5984
5.79,1.02,0.37,-14.25,23.75,39.0625,0.0781,0.6155,0.5068,-0.5984
5.57,0.96,0.44,-14.5,8.5625,55.3125,0.0813,0.6182,0.5047,-0.597
5.07,0.88,0.4,-14.4375,-8.4375,71.9375,0.0925,0.6227,0.4974,-0.5969
3.46,0.94,0.33,-12.625,-32.1875,87.375,0.1006,0.6237,0.4921,-0.599
2.38,0.76,0.34,-9.0625,-63.3125,100.5,0.1104,0.6233,0.4857,-0.6028
1.25,0.49,0.07,-4.8125,-95.1875,108.6875,0.1104,0.6233,0.4857,-0.6028
0.03,0.26,-0.31,-1.875,-118.625,112.625,0.121,0.6218,0.4788,-0.6078
-3.03,0.36,-0.07,1.3125,-125.4375,111.6875,0.1414,0.6181,0.4645,-0.6182
-4.59,0.5,0.29,4.8125,-113.5,103.75,0.1492,0.6171,0.4584,-0.6219
-5.53,0.72,0.85,5.8125,-87.9375,89.75,0.1552,0.6169,0.4537,-0.6241
-6.42,1.67,1.7,3.3125,-57.125,74.0,0.1552,0.6169,0.4537,-0.6241
-7.36,2.08,1.72,-1.3125,-26.625,56.8125,0.1663,0.6126,0.4573,-0.6229
-8.51,2.3,1.59,-4.6875,-3.375,33.375,0.1683,0.6142,0.456,-0.6217
-9.27,1.05,0.69,-4.125,10.1875,2.3125,0.1663,0.6142,0.4577,-0.621
-8.34,-0.1,0.22,-1.0625,19.375,-26.3125,0.1627,0.614,0.4603,-0.6202
-6.97,-1.08,0.05,2.375,29.5625,-44.75,0.1627,0.614,0.4603,-0.6202
-5.45,-1.61,0.16,5.0,35.5,-55.5,0.1627,0.6103,0.468,-0.6181
-3.49,-2.16,0.41,7.625,31.5,-63.9375,0.1527,0.6077,0.4747,-0.6181
-2.61,-2.26,0.39,10.4375,17.875,-72.125,0.1478,0.6047,0.4782,-0.6194
-1.72,-2.14,0.31,11.8125,2.125,-80.3125,0.1431,0.6009,0.4819,-0.6215
-0.47,-1.88,0.05,11.625,-9.25,-86.125,0.1431,0.6009,0.4819,-0.6215
-0.17,-1.65,-0.09,10.0625,-16.0,-88.625,0.1385,0.5966,0.4857,-0.6237
-0.01,-1.39,-0.26,6.8125,-15.6875,-88.375,0.1298,0.5883,0.4937,-0.6273
0.64,-0.67,-0.56,2.375,-6.875,-86.4375,0.1251,0.5852,0.498,-0.6276
1.07,-0.14,-0.52,-1.875,8.75,-83.1875,0.1201,0.5832,0.5024,-0.627
1.65,0.35,-0.48,-4.875,25.3125,-78.6875,0.1201,0.5832,0.5024,-0.627
2.26,0.72,-0.33,-6.8125,38.5625,-71.75,0.115,0.5821,0.5067,-0.6255
3.08,1.14,0.0,-7.6875,48.125,-63.0625,0.1052,0.5822,0.5142,-0.621
3.34,1.31,0.18,-7.3125,52.6875,-54.625,0.1008,0.5828,0.5172,-0.6185
3.59,1.37,0.41,-6.6875,51.75,-46.25,0.097,0.5838,0.5198,-0.6161
4.79,1.43,0.53,-6.5625,50.375,-36.9375,0.097,0.5838,0.5198,-0.6161
5.5,1.51,0.65,-6.8125,50.125,-25.6875,0.0986,0.5811,0.5264,-0.6128
6.08,1.62,0.66,-7.5625,50.625,-11.9375,0.0961,0.5831,0.5278,-0.61
6.48,1.75,0.69,-7.625,47.375,3.5625,0.0942,0.5884,0.5281,-0.605
6.8,1.98,0.74,-7.0625,37.875,20.1875,0.0942,0.5884,0.5281,-0.605
6.82,2.0,0.46,-7.0625,24.9375,36.875,0.0953,0.5913,0.5268,-0.6031
6.67,1.98,0.33,-8.0625,15.875,54.875,0.1025,0.5905,0.5291,-0.6008
5.57,1.88,0.14,-10.125,8.8125,73.9375,0.1063,0.5941,0.526,-0.5992
4.77,1.77,-0.01,-11.9375,-2.25,93.25,0.1118,0.598,0.5219,-0.598
4.01,1.75,0.09,-11.75,-18.1875,111.3125,0.1188,0.6019,0.5167,-0.5972
3.92,2.26,0.52,-8.25,-41.25,125.6875,0.1273,0.6052,0.5103,-0.5977
3.19,2.24,0.71,-2.6875,-68.9375,137.9375,0.1406,0.6049,0.5057,-0.5988
1.16,2.16,1.26,2.875,-99.9375,145.625,0.152,0.606,0.4969,-0.6023
-1.74,2.08,2.14,7.0625,-127.375,143.1875,0.1643,0.6055,0.4875,-0.6072
-6.0,2.99,2.34,8.5,-127.9375,127.1875,0.1756,0.6042,0.4788,-0.6122
-6.78,3.52,2.0,5.75,-96.0,103.125,0.1845,0.6035,0.4717,-0.6158
-7.54,4.06,1.64,0.4375,-54.875,78.125,0.1953,0.6003,0.4713,-0.616
-9.39,3.39,0.54,-3.4375,-21.125,52.9375,0.199,0.6013,0.4684,-0.616
-9.39,1.71,0.08,-4.1875,5.25,27.0625,0.2004,0.6026,0.4673,-0.6151
-8.4,-0.19,0.0,-2.9375,30.125,6.9375,0.1998,0.6044,0.4676,-0.6133
-4.78,-2.8,0.22,-2.8125,51.375,-4.0625,0.1976,0.6068,0.4688,-0.6107
-2.77,-3.45,0.52,-2.5625,56.6875,-11.375,0.1972,0.6074,0.4728,-0.6071
-1.23,-3.72,0.62,-1.375,43.3125,-17.875,0.1946,0.6089,0.4745,-0.6051
-0.31,-3.73,0.49,-0.25,14.6875,-21.625,0.1929,0.6088,0.4758,-0.6047
-0.28,-3.31,-0.24,1.5625,-17.8125,-24.3125,0.1923,0.6069,0.4767,-0.6061
-0.64,-2.92,-0.64,2.5625,-39.875,-28.875,0.1923,0.6038,0.4774,-0.6087
-0.92,-2.5,-1.04,0.9375,-43.75,-31.5,0.1943,0.5988,0.4802,-0.6109
-0.8,-1.73,-1.35,-3.0,-31.75,-30.75,0.1942,0.5958,0.4813,-0.6129
-0.47,-1.24,-1.46,-7.3125,-11.8125,-27.375,0.1936,0.594,0.4829,-0.6136
-0.08,-0.83,-1.39,-10.875,7.0,-22.5625,0.1927,0.5933,0.4847,-0.6132
0.53,-0.24,-1.17,-13.3125,20.6875,-17.0,0.1917,0.5934,0.4866,-0.6119
0.81,-0.03,-1.02,-13.6875,28.5,-12.875,0.1945,0.5909,0.4923,-0.6088
1.08,0.18,-0.82,-12.125,29.375,-10.0,0.1934,0.5918,0.4939,-0.607
1.27,0.36,-0.69,-9.1875,25.0625,-7.625,0.1924,0.5926,0.4952,-0.6055
1.44,0.59,-0.34,-5.625,17.5,-5.4375,0.1917,0.5932,0.496,-0.6045
1.44,0.71,-0.15,-2.0,8.75,-4.0625,0.1912,0.5934,0.4965,-0.604
1.35,0.86,0.0,1.375,0.625,-3.25,0.1929,0.5917,0.4984,-0.6035
0.98,1.03,0.19,3.6875,-4.6875,-2.125,0.1927,0.5915,0.4983,-0.6039
0.8,1.14,0.27,5.125,-6.8125,-0.5,0.1927,0.5912,0.4979,-0.6045
0.69,1.23,0.32,5.0,-4.0,1.375,0.1927,0.5911,0.4975,-0.6049
0.59,1.35,0.34,4.0625,1.375,3.4375,0.1927,0.5914,0.4971,-0.6049
0.57,1.47,0.47,3.1875,7.1875,5.375,0.1948,0.5901,0.4991,-0.6038
0.65,1.47,0.56,1.75,11.4375,7.375,0.1946,0.5911,0.4988,-0.6032
0.7,1.4,0.64,0.875,12.5625,9.375,0.1945,0.5922,0.4985,-0.6025
0.77,1.25,0.72,0.375,10.875,11.125,0.1946,0.5931,0.4982,-0.6017
0.75,1.13,0.74,0.125,6.4375,12.5,0.195,0.594,0.4976,-0.6012
0.71,1.02,0.74,0.5625,1.4375,13.625,0.196,0.5943,0.4974,-0.6008
0.62,0.75,0.74,1.3125,-3.625,14.1875,0.1969,0.5947,0.4966,-0.6008
0.5,0.61,0.68,1.8125,-8.1875,14.125,0.1978,0.595,0.4956,-0.601
0.42,0.5,0.7,2.1875,-10.875,13.75,0.1989,0.595,0.4946,-0.6014
0.35,0.38,0.68,2.4375,-11.9375,13.8125,0.2,0.595,0.4936,-0.6019
0.22,0.22,0.63,2.5625,-11.875,13.6875,0.2024,0.5939,0.494,-0.6019
0.04,0.19,0.51,2.125,-11.625,14.375,0.2036,0.5939,0.4929,-0.6024
-0.12,0.1,0.43,1.875,-11.0625,14.8125,0.2047,0.5941,0.4919,-0.6027
-0.35,0.03,0.39,2.0,-11.0625,14.75,0.2057,0.5941,0.4908,-0.6031
-0.38,-0.01,0.36,2.0625,-11.0,14.1875,0.2068,0.5942,0.4899,-0.6035
-0.47,-0.07,0.3,2.3125,-10.75,13.5,0.2097,0.5927,0.4907,-0.6033
-0.66,-0.12,0.19,2.5,-11.75,13.125,0.2107,0.5927,0.4896,-0.6038
-0.74,-0.17,0.19,2.75,-13.1875,12.5,0.2118,0.5927,0.4886,-0.6043
-0.85,-0.26,0.16,3.1875,-14.4375,11.1875,0.2128,0.5924,0.4877,-0.605
-1.0,-0.29,0.16,3.3125,-15.25,9.625,0.2137,0.5921,0.4868,-0.6057
-1.21,-0.44,0.06,3.0,-14.4375,7.875,0.2146,0.5917,0.486,-0.6064
-1.21,-0.47,0.03,2.5625,-11.125,6.375,0.2153,0.5914,0.4853,-0.6069
-1.14,-0.43,-0.01,1.875,-6.3125,4.75,0.2157,0.5913,0.4849,-0.6072
-0.89,-0.37,-0.15,1.25,-2.125,3.25,0.2159,0.5914,0.4846,-0.6073
-0.81,-0.43,-0.23,0.5625,0.5,1.5625,0.2159,0.5914,0.4845,-0.6073
-0.77,-0.43,-0.28,-0.0625,2.375,0.3125,0.2158,0.5916,0.4846,-0.6072
-0.59,-0.37,-0.3,-0.4375,3.5625,-1.25,0.2156,0.5917,0.4847,-0.607
-0.51,-0.3,-0.32,-1.0625,4.5625,-2.5625,0.2154,0.5918,0.485,-0.6068
-0.42,-0.25,-0.27,-1.25,5.125,-3.625,0.215,0.5919,0.4853,-0.6066
-0.27,-0.19,-0.22,-1.3125,4.6875,-4.875,0.2147,0.5919,0.4857,-0.6063
-0.04,-0.16,-0.12,-1.0625,4.375,-5.5625,0.2142,0.5919,0.4861,-0.6062
0.04,-0.14,-0.07,-1.0625,4.5625,-5.6875,0.2138,0.5919,0.4865,-0.606
0.11,-0.1,-0.09,-0.9375,4.9375,-5.5,0.2134,0.5919,0.4869,-0.6058
0.27,0.0,-0.07,-0.875,5.5625,-4.8125,0.213,0.592,0.4874,-0.6056
0.35,0.03,-0.08,-0.5,6.25,-4.0625,0.2125,0.5921,0.4877,-0.6053
0.36,0.07,-0.1,-0.1875,6.5,-3.25,0.212,0.5923,0.488,-0.605
0.33,0.16,-0.05,0.5,6.0625,-2.4375,0.2117,0.5925,0.4882,-0.6048
0.3,0.27,0.04,1.5625,4.9375,-1.75,0.2113,0.5927,0.4883,-0.6047
0.3,0.21,0.09,2.375,4.5,-1.125,0.2109,0.593,0.4883,-0.6046
0.36,0.18,0.16,3.1875,4.8125,-0.5625,0.2106,0.5933,0.4882,-0.6044
0.34,0.15,0.24,3.5625,4.3125,0.4375,0.2103,0.5935,0.4882,-0.6044
0.27,0.17,0.28,4.3125,2.8125,0.9375,0.21,0.5937,0.4879,-0.6044
0.24,0.15,0.27,4.9375,0.8125,1.375,0.2098,0.5939,0.4875,-0.6046
0.09,0.22,0.36,5.25,-0.4375,1.75,0.2097,0.5941,0.4871,-0.6049
0.04,0.28,0.39,5.5,-1.1875,2.1875,0.2097,0.5941,0.4866,-0.6052
0.08,0.33,0.41,5.375,-1.0625,2.5,0.2097,0.5943,0.486,-0.6055
0.1,0.4,0.42,5.0,-0.6875,2.875,0.2098,0.5944,0.4854,-0.6058
0.1,0.63,0.45,4.25,-0.5,3.8125,0.2098,0.5947,0.485,-0.606
0.11,0.79,0.48,3.0625,0.125,4.6875,0.2098,0.5949,0.4846,-0.606
0.14,0.94,0.51,1.3125,0.375,5.875,0.2101,0.5952,0.4843,-0.606
0.22,1.12,0.45,-0.9375,1.0625,7.875,0.2104,0.5955,0.4839,-0.6057
0.21,1.23,0.4,-4.125,2.75,10.5,0.2111,0.596,0.4836,-0.6052
0.17,1.4,0.31,-8.0625,4.5625,13.625,0.212,0.5967,0.4835,-0.6044
0.29,1.89,0.25,-13.3125,7.0625,17.5625,0.2133,0.5975,0.4833,-0.6032
0.4,2.12,0.38,-19.8125,10.125,21.6875,0.215,0.5986,0.4835,-0.6015
0.55,2.33,0.5,-28.4375,14.3125,26.4375,0.2172,0.5999,0.4838,-0.5991
0.61,2.63,0.46,-39.8125,20.1875,32.6875,0.2201,0.6014,0.4846,-0.5958
0.69,3.09,0.56,-53.625,29.5,40.9375,0.2236,0.6036,0.4857,-0.5914
0.98,2.96,0.71,-67.125,40.0,50.1875,0.2279,0.6064,0.4872,-0.5856
1.41,2.83,0.71,-82.5625,49.0625,60.1875,0.2331,0.6097,0.4892,-0.5785
1.99,2.58,0.12,-99.4375,56.9375,70.3125,0.2393,0.6133,0.4915,-0.5701
2.22,2.39,-0.01,-114.75,61.375,79.8125,0.2465,0.6172,0.4941,-0.5604
2.39,2.22,-0.12,-128.4375,61.6875,87.875,0.2548,0.6212,0.4968,-0.55
2.39,2.18,-0.13,-141.5625,61.75,95.0,0.264,0.6249,0.4997,-0.5387
2.31,2.05,-0.2,-152.8125,61.8125,101.1875,0.274,0.6285,0.5026,-0.5266
2.05,2.02,-0.43,-161.9375,61.0625,106.9375,0.2847,0.6319,0.5055,-0.514
1.9,2.03,-0.42,-167.9375,59.9375,111.8125,0.296,0.6351,0.5082,-0.5009
1.88,2.16,-0.38,-171.4375,58.4375,115.75,0.3075,0.6382,0.5106,-0.4874
1.87,1.91,0.06,-171.9375,56.4375,119.375,0.3192,0.6411,0.5126,-0.4737
1.76,1.62,0.29,-171.0,51.9375,122.625,0.3311,0.6437,0.5141,-0.4601
1.66,1.49,0.83,-169.5,45.5,125.625,0.3431,0.6461,0.5151,-0.4467
1.7,1.29,1.27,-165.9375,39.75,128.5,0.3552,0.6483,0.5154,-0.4335
1.84,1.07,1.62,-161.25,35.0625,131.5625,0.3672,0.6504,0.515,-0.4205
1.96,0.89,1.94,-156.75,29.0,135.0,0.3794,0.6523,0.514,-0.4079
2.1,0.86,2.24,-152.125,21.625,137.6875,0.3915,0.6541,0.5123,-0.3956
1.98,0.72,2.28,-146.6875,12.6875,139.0,0.4036,0.6556,0.5098,-0.3839
1.73,0.56,2.29,-140.0,2.875,139.375,0.4157,0.6568,0.5067,-0.3729
0.99,0.67,2.11,-133.625,-6.875,139.3125,0.4278,0.6578,0.5029,-0.3627
0.65,0.66,1.98,-127.8125,-14.8125,138.3125,0.4397,0.6584,0.4985,-0.353
0.48,0.62,1.61,-121.8125,-19.5,136.5,0.4513,0.6591,0.4937,-0.3438
0.2,0.55,0.79,-114.8125,-21.0,134.625,0.4622,0.66,0.4882,-0.3354
0.1,0.25,0.65,-106.6875,-21.5,131.8125,0.4727,0.6606,0.483,-0.327
0.0,0.0,0.59,-97.5,-23.0625,129.3125,0.4826,0.6613,0.4775,-0.3192
-0.01,-0.2,0.65,-86.9375,-26.875,127.0625,0.4919,0.662,0.4716,-0.312
0.07,-0.19,0.84,-77.375,-34.0625,123.875,0.5009,0.6628,0.4653,-0.3056
0.09,-0.14,0.87,-68.6875,-42.75,120.5625,0.5095,0.6635,0.4584,-0.3002
0.08,-0.07,0.89,-60.625,-50.25,117.4375,0.5177,0.6641,0.4512,-0.2955
0.08,-0.03,1.26,-52.9375,-56.25,115.375,0.5257,0.6647,0.4435,-0.2916
-0.05,0.0,0.95,-45.75,-60.1875,113.875,0.5333,0.6655,0.4356,-0.2882
0.11,-0.08,1.11,-37.4375,-62.75,111.9375,0.5404,0.6663,0.4274,-0.2853
0.01,0.04,0.99,-31.0,-66.25,112.0,0.5472,0.6673,0.4188,-0.2828
0.0,0.06,0.78,-25.4375,-69.0,112.9375,0.5537,0.6684,0.4098,-0.2805
-0.04,0.1,0.66,-20.125,-69.375,113.9375,0.5599,0.6697,0.4006,-0.2784
-0.09,0.05,0.56,-15.75,-66.5625,115.9375,0.5658,0.6713,0.3912,-0.2761
-0.09,0.24,0.67,-12.125,-61.8125,118.375,0.5712,0.6732,0.3818,-0.2736
-0.3,0.27,0.79,-9.3125,-56.0,119.8125,0.5763,0.6752,0.3724,-0.2706
-0.54,0.36,0.9,-6.3125,-51.8125,121.375,0.5811,0.6775,0.3632,-0.2675
-0.5,0.76,0.88,-4.1875,-51.1875,121.8125,0.5856,0.6798,0.3537,-0.2643
-0.42,0.89,0.79,-2.875,-50.4375,122.0,0.5899,0.6822,0.3442,-0.261
-0.27,0.91,0.7,-2.4375,-47.9375,121.9375,0.5941,0.6845,0.3349,-0.2576
0.0,1.03,0.52,-1.9375,-46.0625,122.5,0.5981,0.6868,0.3255,-0.2541
-0.03,1.05,0.4,-1.375,-46.0,123.625,0.6021,0.6891,0.316,-0.2504
-0.09,1.14,0.26,-1.3125,-46.9375,124.1875,0.606,0.6913,0.3064,-0.2468
-0.13,1.21,0.28,-1.1875,-48.875,124.5625,0.6099,0.6934,0.2966,-0.2432
-0.15,1.42,0.45,-0.0625,-52.0625,125.3125,0.6138,0.6954,0.2866,-0.2398
-0.21,1.44,0.47,1.0,-57.0625,126.9375,0.6176,0.6974,0.2761,-0.2366
-0.36,1.42,0.39,3.0,-63.4375,128.8125,0.6215,0.6992,0.2651,-0.2336
-0.45,1.55,0.4,5.1875,-69.4375,130.5625,0.6252,0.701,0.2537,-0.231
-0.5,1.53,0.46,7.875,-74.25,132.375,0.6289,0.7027,0.2417,-0.2286
-0.59,1.43,0.42,11.0,-79.6875,134.5,0.6324,0.7045,0.2292,-0.2264
-0.86,1.38,0.43,14.0,-85.1875,136.4375,0.6357,0.7062,0.2163,-0.2244
-1.11,1.52,0.37,16.625,-90.0,137.0625,0.639,0.7078,0.2029,-0.2227
-1.23,1.65,0.29,19.5625,-93.6875,136.8125,0.6419,0.7094,0.1893,-0.2212
-1.35,1.84,0.23,22.9375,-98.6875,136.0,0.6446,0.7109,0.1754,-0.2201
-1.59,2.19,0.39,26.625,-106.1875,134.8125,0.647,0.7122,0.161,-0.2195
-1.95,2.18,0.51,30.4375,-115.4375,132.625,0.6491,0.7135,0.1461,-0.2196
-2.3,2.1,0.56,33.4375,-125.625,128.8125,0.6509,0.7145,0.1309,-0.2205
-2.79,1.98,0.55,36.1875,-135.5,122.3125,0.6525,0.7152,0.1153,-0.2223
-3.07,1.77,0.56,38.0625,-144.3125,113.875,0.6536,0.7156,0.0997,-0.2251
-3.43,1.56,0.41,38.125,-150.8125,105.25,0.6545,0.7157,0.0844,-0.2287
-3.77,1.3,0.29,35.875,-154.1875,95.3125,0.6552,0.7153,0.0693,-0.233
-4.17,0.93,0.0,31.6875,-152.9375,83.5,0.6558,0.7144,0.0552,-0.2377
-4.43,0.76,-0.32,25.25,-148.5,70.4375,0.6562,0.7131,0.0422,-0.2429
-4.68,0.53,-0.62,17.0625,-139.0625,57.5625,0.6569,0.7114,0.0307,-0.2482
-4.75,0.32,-0.96,8.1875,-123.1875,44.6875,0.6576,0.7093,0.021,-0.2531
