lin_acc_x,lin_acc_y,lin_acc_z,gyro_x,gyro_y,gyro_z,quat_w,quat_x,quat_y,quat_z
-4.67,0.79,-2.44,65.625,-49.0625,-156.25,0.5259,0.7198,-0.0374,-0.4515
-4.58,0.62,-2.38,69.6875,-49.0625,-166.25,0.5152,0.7215,-0.032,-0.4615
-4.53,0.3,-2.69,71.3125,-44.5625,-173.9375,0.5038,0.7232,-0.0261,-0.4716
-4.37,0.22,-2.54,72.75,-35.875,-179.6875,0.4921,0.7252,-0.0195,-0.4812
-4.16,0.31,-2.49,73.875,-26.6875,-184.0625,0.48,0.7274,-0.0124,-0.4903
-4.04,0.51,-2.53,73.6875,-17.75,-188.1875,0.4676,0.7297,-0.0046,-0.4989
-4.22,0.37,-2.68,75.75,-6.8125,-192.875,0.4547,0.7324,0.0038,-0.5068
-4.11,0.41,-2.66,79.3125,4.375,-198.125,0.4412,0.7354,0.0129,-0.5141
-3.82,0.59,-2.64,83.125,13.0625,-203.125,0.4272,0.7388,0.0223,-0.5208
-3.44,0.51,-2.44,88.125,18.75,-206.125,0.4125,0.7422,0.032,-0.5272
-3.31,0.53,-2.15,94.375,20.75,-207.9375,0.3972,0.7457,0.0416,-0.5333
-3.34,0.52,-1.84,100.4375,17.875,-211.1875,0.3812,0.749,0.0509,-0.5395
-3.13,0.61,-1.2,105.9375,13.75,-215.75,0.3646,0.752,0.0602,-0.5459
-2.82,0.67,-0.96,108.5625,12.5625,-218.0625,0.3475,0.7546,0.0694,-0.5522
-2.45,0.76,-0.6,109.5,14.6875,-217.5625,0.3301,0.7571,0.0786,-0.5582
-2.09,1.03,-0.53,111.9375,14.8125,-217.875,0.3126,0.7593,0.0876,-0.564
-1.72,1.29,-0.11,113.4375,13.5,-218.375,0.2947,0.7612,0.0966,-0.5696
-1.82,1.51,0.11,113.9375,11.375,-219.25,0.2767,0.7626,0.1054,-0.5751
-1.94,1.9,0.23,116.625,7.9375,-223.375,0.2582,0.7635,0.1143,-0.5807
-1.39,1.89,0.56,117.75,5.375,-226.5625,0.2394,0.764,0.1232,-0.5863
-0.75,1.97,0.7,117.5625,5.6875,-225.75,0.2205,0.7642,0.1321,-0.5916
-0.71,2.01,0.74,115.9375,8.3125,-221.6875,0.2018,0.7641,0.1407,-0.5964
-1.15,2.3,0.79,113.875,8.1875,-220.25,0.1832,0.7637,0.1493,-0.6008
-1.64,2.69,1.22,111.5625,5.9375,-222.4375,0.1646,0.7627,0.158,-0.6051
-1.49,2.97,1.21,108.5,5.4375,-223.25,0.1461,0.7614,0.1669,-0.6092
-1.1,3.23,1.07,105.0,8.0,-220.8125,0.1278,0.7598,0.1758,-0.6127
-0.51,3.12,0.85,101.8125,12.3125,-218.0,0.1098,0.7581,0.1846,-0.6157
-0.39,3.31,0.98,99.875,17.1875,-216.0,0.0919,0.7565,0.1934,-0.618
0.0,3.61,1.28,96.3125,18.8125,-213.5625,0.0743,0.7545,0.2021,-0.6199
0.83,3.36,1.67,93.25,21.6875,-209.25,0.057,0.7526,0.2106,-0.6213
0.83,3.34,2.1,88.875,26.0,-203.1875,0.0402,0.7506,0.219,-0.6221
0.85,3.54,2.03,82.75,28.375,-197.5625,0.024,0.7486,0.2272,-0.6224
0.98,3.77,1.73,77.3125,30.25,-191.8125,0.0085,0.7465,0.2353,-0.6223
1.62,3.79,1.49,73.5625,31.375,-185.25,-0.0065,0.7444,0.2431,-0.6218
1.97,3.83,1.4,69.75,29.6875,-178.5,-0.0209,0.7422,0.2506,-0.6212
2.12,3.8,1.39,65.9375,27.1875,-172.125,-0.0347,0.7398,0.2579,-0.6205
2.47,3.49,1.44,62.1875,25.625,-165.6875,-0.0478,0.7372,0.2648,-0.6197
2.74,3.55,1.49,58.5625,24.5,-157.8125,-0.0602,0.7347,0.2715,-0.6188
2.59,3.42,1.34,54.3125,24.875,-150.25,-0.072,0.7322,0.2778,-0.6177
3.57,3.83,1.67,49.1875,23.5625,-140.875,-0.0829,0.7298,0.2838,-0.6165
3.86,3.58,1.41,53.5625,21.0,-148.1875,-0.0945,0.7269,0.29,-0.6154
3.07,3.78,1.31,49.6875,15.0,-157.5,-0.1061,0.7233,0.2969,-0.6143
2.18,3.53,1.3,39.9375,7.4375,-120.0625,-0.1149,0.7203,0.3021,-0.6138
2.91,2.31,1.0,34.25,12.125,-77.5,-0.1213,0.7186,0.3049,-0.6132
3.81,3.17,1.17,26.0625,27.875,-76.3125,-0.1276,0.7178,0.3079,-0.6113
3.98,3.69,1.25,23.1875,32.8125,-82.3125,-0.1341,0.7171,0.3113,-0.609
3.54,2.96,0.86,22.625,20.75,-70.0625,-0.1396,0.7161,0.3141,-0.6075
3.34,2.71,0.81,20.375,12.25,-55.3125,-0.144,0.715,0.3163,-0.6067
3.47,2.67,0.76,16.0625,16.625,-44.3125,-0.1477,0.7144,0.3179,-0.6056
3.69,2.74,0.77,11.5625,26.125,-33.625,-0.1508,0.7147,0.319,-0.6039
4.01,2.61,1.15,7.75,34.0,-23.0625,-0.1534,0.7157,0.3196,-0.6017
3.91,2.63,1.14,4.5625,38.5625,-13.5625,-0.1554,0.7172,0.3197,-0.5994
3.78,2.56,1.2,1.9375,40.875,-4.625,-0.1569,0.7192,0.3193,-0.5969
3.77,2.54,1.07,-0.375,41.375,4.6875,-0.1577,0.7214,0.3185,-0.5944
3.77,2.61,1.14,-3.25,40.1875,13.625,-0.158,0.7238,0.3173,-0.592
3.69,2.69,1.15,-5.4375,35.4375,22.75,-0.1574,0.7263,0.3157,-0.59
3.57,2.62,1.27,-6.75,26.5,31.6875,-0.1561,0.7285,0.3137,-0.5886
3.53,2.54,1.22,-7.875,14.0625,39.6875,-0.1541,0.7303,0.3115,-0.5881
3.54,2.48,1.02,-9.0,1.875,48.1875,-0.1511,0.7318,0.309,-0.5883
3.69,2.4,0.99,-11.0,-7.0,57.625,-0.1474,0.7331,0.306,-0.5892
3.86,2.25,0.81,-13.625,-11.875,68.8125,-0.1428,0.7344,0.3026,-0.5905
4.01,2.08,0.72,-17.0,-13.6875,80.25,-0.1374,0.736,0.2986,-0.5918
4.13,1.98,0.51,-20.625,-11.5625,92.5625,-0.1312,0.738,0.294,-0.5931
3.21,1.91,0.75,-24.0625,-7.375,107.1875,-0.1241,0.7405,0.2886,-0.5941
3.18,1.88,0.96,-26.125,-12.1875,121.75,-0.1161,0.7431,0.2824,-0.5955
2.8,1.7,0.85,-28.3125,-31.3125,137.0,-0.1066,0.745,0.2755,-0.5981
0.63,1.74,0.5,-29.4375,-60.5,151.0,-0.0958,0.7457,0.268,-0.6025
-0.83,1.75,0.28,-29.1875,-92.5,158.8125,-0.0837,0.7447,0.2603,-0.6088
-1.93,1.79,-0.14,-27.0625,-118.375,158.0625,-0.0713,0.7422,0.2525,-0.6168
-3.1,1.28,-0.47,-24.0,-134.0,150.4375,-0.0591,0.7384,0.2451,-0.6254
-4.27,1.24,-0.57,-24.0,-131.5,141.0625,-0.0474,0.7344,0.2382,-0.6338
-4.21,1.41,0.02,-23.875,-105.75,132.0625,-0.0367,0.7314,0.2316,-0.6403
-4.39,1.68,0.59,-23.3125,-65.375,126.3125,-0.0272,0.7304,0.2253,-0.6442
-4.15,2.3,1.28,-21.625,-39.6875,118.0625,-0.0186,0.7305,0.2192,-0.6465
-4.08,2.55,1.09,-20.1875,-31.25,105.375,-0.011,0.7307,0.2139,-0.6482
-5.26,2.56,0.73,-17.1875,-32.9375,86.25,-0.0046,0.7305,0.2095,-0.65
-9.49,1.61,0.27,-9.9375,-38.625,59.3125,-0.0001,0.7294,0.2064,-0.6522
-10.3,0.58,0.07,-1.625,-40.0625,23.375,0.002,0.7276,0.2051,-0.6547
-9.77,-0.55,-0.04,3.75,-27.875,-10.6875,0.0016,0.7258,0.2055,-0.6564
-8.42,-1.49,0.01,4.3125,-5.3125,-31.6875,-0.0003,0.725,0.2072,-0.6569
-5.92,-2.55,0.52,2.6875,18.5625,-44.0625,-0.0032,0.7253,0.2098,-0.6558
-5.13,-2.64,0.56,0.625,32.1875,-55.0625,-0.0069,0.7261,0.2131,-0.6537
-4.47,-2.49,0.42,-0.875,32.0625,-67.125,-0.0111,0.7266,0.2173,-0.6517
-3.67,-1.6,-0.41,-1.0625,25.1875,-79.25,-0.0159,0.7265,0.2222,-0.65
-3.36,-1.15,-0.65,1.625,17.3125,-89.8125,-0.0212,0.7258,0.2275,-0.6489
-2.83,-0.79,-0.69,4.25,14.5625,-99.5,-0.0272,0.7246,0.2334,-0.6479
-1.96,-0.47,-0.7,5.25,17.9375,-106.75,-0.0338,0.7234,0.2396,-0.6466
-0.57,-0.11,-0.47,5.5625,27.8125,-109.4375,-0.0406,0.7227,0.2458,-0.6447
-0.08,0.09,-0.32,4.125,38.4375,-108.125,-0.0475,0.7225,0.2521,-0.642
0.43,0.19,-0.31,2.3125,46.3125,-105.4375,-0.0544,0.7227,0.2582,-0.6388
2.16,-0.1,-0.33,0.8125,53.4375,-101.625,-0.0611,0.7234,0.2641,-0.635
2.82,-0.07,-0.21,-1.125,61.0,-94.5,-0.0674,0.7245,0.2696,-0.6307
3.36,0.0,-0.12,-3.875,68.5625,-85.0625,-0.0733,0.7262,0.2746,-0.626
4.8,0.01,-0.31,-6.6875,74.75,-74.9375,-0.0786,0.7285,0.2791,-0.6207
5.18,0.05,0.03,-8.75,81.1875,-63.9375,-0.0833,0.7312,0.283,-0.6151
5.48,0.13,0.17,-12.0625,84.75,-51.5625,-0.0873,0.7344,0.2861,-0.6091
5.9,0.21,0.12,-15.4375,85.4375,-37.5625,-0.0903,0.738,0.2886,-0.6032
6.88,0.34,0.18,-18.75,86.0,-21.875,-0.0923,0.742,0.2903,-0.5972
7.3,0.45,0.32,-22.0625,82.625,-4.1875,-0.0932,0.7462,0.291,-0.5914
7.23,0.6,0.45,-25.25,74.625,16.0625,-0.0927,0.7505,0.2907,-0.5862
6.55,1.04,0.66,-28.4375,61.1875,36.9375,-0.0905,0.7547,0.2892,-0.5819
5.89,1.15,0.91,-30.625,41.5,57.0,-0.0868,0.7583,0.2868,-0.5789
5.06,0.99,1.13,-31.5,14.6875,77.0,-0.0814,0.7611,0.2833,-0.5778
4.64,0.78,1.14,-32.25,-19.0,95.5625,-0.0742,0.7627,0.2789,-0.5789
4.34,0.75,1.34,-31.25,-56.375,112.8125,-0.0653,0.7627,0.2734,-0.5824
3.89,0.89,1.08,-28.75,-96.5,126.4375,-0.055,0.761,0.2672,-0.5886
2.97,0.94,0.54,-25.3125,-128.3125,135.8125,-0.0437,0.7577,0.2603,-0.5969
-1.02,1.15,0.12,-22.1875,-141.0,139.9375,-0.0321,0.7537,0.253,-0.6058
-2.56,1.26,0.87,-20.6875,-138.5,136.125,-0.0209,0.7494,0.2457,-0.6145
-3.33,1.78,2.11,-23.8125,-128.1875,124.875,-0.0102,0.7453,0.2393,-0.6223
-7.28,3.13,2.19,-23.75,-104.9375,110.4375,-0.0008,0.742,0.2336,-0.6284
-10.22,3.4,0.73,-19.875,-69.625,88.5,0.0065,0.74,0.2291,-0.6324
-12.49,3.17,-0.52,-14.0,-28.4375,51.75,0.0107,0.7394,0.2266,-0.6339
-13.07,2.6,-1.3,-9.8125,18.125,7.4375,0.0114,0.7405,0.2267,-0.6325
-9.77,0.12,-1.22,-9.125,64.9375,-24.4375,0.0094,0.7435,0.2288,-0.6283
-7.34,-0.6,-0.44,-9.5,97.5625,-37.6875,0.0061,0.7479,0.2317,-0.6219
-5.22,-0.98,0.46,-5.6875,100.6875,-45.6875,0.0021,0.7523,0.2349,-0.6155
-2.63,-1.91,1.05,0.5,75.125,-55.0,-0.0023,0.7551,0.2384,-0.6107
-2.24,-2.36,0.92,6.125,36.25,-63.875,-0.0067,0.7557,0.2422,-0.6085
-1.85,-2.44,0.49,11.4375,-2.375,-73.3125,-0.0111,0.754,0.2463,-0.6088
-0.96,-2.03,-0.41,14.625,-29.875,-83.75,-0.0157,0.7507,0.2509,-0.611
-0.71,-1.68,-0.78,15.0,-37.0,-88.9375,-0.0205,0.7469,0.2558,-0.6135
-0.32,-1.29,-0.88,11.5,-26.625,-89.6875,-0.0253,0.7435,0.2609,-0.6152
0.15,-0.78,-0.8,6.8125,-6.8125,-88.5625,-0.0302,0.7411,0.2661,-0.6156
1.08,0.26,-0.56,2.0,15.4375,-85.125,-0.0351,0.7401,0.2713,-0.6144
1.45,0.8,-0.38,-1.6875,35.75,-77.75,-0.0398,0.7401,0.2761,-0.6119
1.9,1.14,-0.1,-3.125,50.0,-70.1875,-0.0444,0.741,0.2805,-0.6085
3.08,1.33,0.23,-3.0,56.875,-63.0625,-0.0488,0.7424,0.2844,-0.6046
3.62,1.36,0.38,-3.25,58.4375,-53.875,-0.0527,0.7441,0.2877,-0.6006
4.36,1.28,0.64,-4.0,57.8125,-42.6875,-0.0561,0.746,0.2903,-0.5967
6.31,1.02,0.68,-5.6875,57.0,-31.375,-0.0587,0.7482,0.2923,-0.5928
6.88,0.93,0.54,-6.875,55.75,-19.25,-0.0606,0.7505,0.2936,-0.589
7.32,0.87,0.48,-7.5625,51.9375,-4.6875,-0.0616,0.753,0.294,-0.5854
7.75,0.78,0.63,-8.0625,38.625,12.3125,-0.0615,0.7552,0.2934,-0.5829
7.03,0.8,0.66,-8.4375,16.6875,32.75,-0.0598,0.757,0.2916,-0.5818
5.9,0.89,0.43,-9.9375,-11.0,54.875,-0.0562,0.7578,0.2886,-0.5825
4.87,0.85,0.27,-10.875,-41.875,77.625,-0.0506,0.7576,0.2844,-0.5853
5.41,1.0,0.67,-9.1875,-78.625,96.6875,-0.0433,0.7561,0.279,-0.5905
5.54,1.03,0.81,-3.9375,-114.8125,114.9375,-0.0346,0.753,0.2723,-0.5981
4.75,1.18,1.07,2.125,-148.5625,130.125,-0.0248,0.7484,0.2643,-0.6078
3.52,1.54,1.46,5.125,-171.5,135.3125,-0.0143,0.7424,0.2557,-0.619
-0.63,2.35,2.62,3.25,-166.5,130.9375,-0.0041,0.7365,0.2476,-0.6296
-2.53,2.85,2.8,-1.0,-136.625,120.0625,0.0052,0.7316,0.2401,-0.638
-4.7,3.54,2.3,-5.625,-99.0,103.4375,0.0132,0.7283,0.234,-0.6439
-8.91,4.14,-0.02,-7.8125,-58.9375,81.5625,0.0192,0.7267,0.2293,-0.6473
-9.83,3.26,-0.97,-7.25,-17.875,57.1875,0.0232,0.7268,0.2262,-0.6481
-9.4,2.06,-1.17,-8.5625,19.8125,34.4375,0.0252,0.7285,0.2245,-0.6467
-5.67,-0.44,-0.1,-8.75,49.0625,21.25,0.0259,0.7316,0.2238,-0.6434
-3.75,-1.15,0.7,-8.0625,61.9375,14.625,0.0261,0.7352,0.2235,-0.6394
-2.12,-1.72,1.37,-6.75,52.4375,9.5,0.0261,0.7382,0.2234,-0.636
-1.06,-2.28,1.57,-3.0,24.0,5.5,0.0261,0.7396,0.2233,-0.6345
-0.35,-2.99,0.55,1.875,-11.6875,0.6875,0.0262,0.739,0.2231,-0.6352
-0.59,-3.01,-0.2,6.8125,-42.0,-6.875,0.0262,0.7366,0.2231,-0.6379
-1.11,-2.87,-0.75,7.9375,-53.0,-12.5,0.026,0.7335,0.2233,-0.6414
-1.56,-2.38,-1.36,4.5625,-45.375,-14.0625,0.0258,0.7308,0.2238,-0.6443
-1.27,-2.07,-1.35,-0.125,-25.3125,-13.125,0.0256,0.7291,0.2245,-0.6459
-0.72,-1.71,-1.05,-5.5625,-1.8125,-10.8125,0.0254,0.7288,0.2255,-0.646
0.05,-1.04,-0.66,-10.5625,16.75,-7.5,0.0253,0.7296,0.2266,-0.6448
0.16,-0.61,-0.64,-12.3125,25.6875,-4.9375,0.0253,0.7308,0.2277,-0.6429
0.22,-0.31,-0.61,-10.9375,24.4375,-4.1875,0.0253,0.7321,0.2286,-0.6412
0.25,-0.09,-0.49,-8.0,18.375,-5.6875,0.0251,0.733,0.2294,-0.64
0.23,0.09,-0.3,-4.75,11.1875,-6.75,0.0248,0.7334,0.2301,-0.6392
0.13,0.1,-0.26,-1.375,3.1875,-6.625,0.0245,0.7335,0.2306,-0.639
0.0,0.09,-0.23,1.0625,-2.8125,-5.5625,0.0242,0.7332,0.2309,-0.6392
0.12,0.26,0.0,1.6875,-3.0,-3.875,0.0239,0.733,0.231,-0.6394
0.31,0.49,0.17,1.6875,1.5,-4.8125,0.0235,0.733,0.2312,-0.6393
0.41,0.54,0.28,1.75,6.0625,-4.8125,0.023,0.7332,0.2314,-0.639
0.53,0.85,0.55,0.8125,9.0625,-4.125,0.0226,0.7336,0.2317,-0.6385
0.57,0.86,0.55,-0.0625,10.9375,-2.5625,0.0222,0.7341,0.2319,-0.6378
0.62,0.89,0.59,-0.75,10.5625,-0.875,0.022,0.7347,0.232,-0.6371
0.69,0.94,0.62,-1.75,8.6875,0.1875,0.022,0.7352,0.2321,-0.6365
0.68,1.05,0.55,-2.3125,5.9375,1.3125,0.022,0.7355,0.2321,-0.6361
0.64,1.05,0.49,-2.375,2.5625,3.0,0.0223,0.7357,0.2321,-0.6359
0.6,0.95,0.47,-2.25,0.4375,4.6875,0.0227,0.7358,0.2319,-0.6359
0.57,0.74,0.36,-2.625,0.1875,6.1875,0.0232,0.7359,0.2317,-0.6358
0.55,0.56,0.33,-2.625,0.9375,6.875,0.0242,0.736,0.231,-0.6359
0.49,0.4,0.33,-2.625,1.3125,7.5625,0.0247,0.7363,0.2307,-0.6357
0.4,0.26,0.29,-2.5625,1.5,8.4375,0.0253,0.7365,0.2303,-0.6356
0.23,0.06,0.06,-2.5,1.25,8.6875,0.0259,0.7367,0.2299,-0.6354
0.1,-0.11,-0.02,-2.25,0.1875,9.0,0.0265,0.7369,0.2294,-0.6353
-0.08,-0.15,-0.07,-1.8125,-1.4375,8.75,0.0271,0.737,0.229,-0.6354
-0.69,-0.19,-0.1,-1.1875,-3.25,7.75,0.0276,0.7369,0.2286,-0.6356
-1.04,-0.15,-0.1,-0.625,-4.5625,5.9375,0.0281,0.7368,0.2282,-0.6358
-1.34,-0.01,-0.12,-0.3125,-4.875,2.875,0.0284,0.7366,0.228,-0.6361
-1.52,0.03,-0.11,0.0,-5.0,-0.5,0.0284,0.7363,0.228,-0.6364
-1.62,-0.01,-0.18,0.1875,-3.375,-3.375,0.0284,0.7361,0.2282,-0.6366
-1.76,-0.03,-0.19,0.0625,-0.1875,-6.25,0.028,0.736,0.2286,-0.6367
-1.75,0.06,-0.14,0.125,2.25,-10.125,0.0274,0.7359,0.2292,-0.6365
-1.59,-0.09,-0.01,0.75,3.8125,-13.1875,0.0266,0.7358,0.23,-0.6364
-1.37,0.01,0.08,-0.0625,6.25,-16.9375,0.0256,0.7358,0.2311,-0.636
-1.06,0.13,0.14,-1.625,8.9375,-19.375,0.0244,0.736,0.2324,-0.6354
-0.48,0.27,0.06,-3.25,9.75,-20.6875,0.0308,0.7333,0.2425,-0.6345
-0.27,0.31,-0.04,-5.625,9.25,-22.0625,0.0297,0.7333,0.2442,-0.6339
-0.08,0.32,-0.17,-8.3125,9.875,-22.625,0.0288,0.7333,0.2461,-0.6331
0.4,0.51,-0.16,-11.0,11.5625,-22.9375,0.0281,0.7335,0.2481,-0.6322
0.62,0.67,-0.12,-13.625,14.0625,-21.9375,0.0274,0.7337,0.2502,-0.6311
0.84,0.86,-0.04,-16.625,16.5,-20.0,0.0341,0.7313,0.2606,-0.6295
1.07,1.06,0.09,-19.4375,19.0625,-17.0,0.0339,0.7319,0.2627,-0.6279
1.43,1.48,0.38,-22.25,22.25,-12.875,0.0342,0.7327,0.2648,-0.626
1.79,1.72,0.55,-25.8125,25.375,-7.125,0.0348,0.7338,0.2667,-0.6239
2.14,1.93,0.7,-29.6875,29.9375,0.3125,0.0359,0.7353,0.2683,-0.6214
2.95,2.26,0.81,-33.125,34.4375,8.125,0.0441,0.7343,0.2773,-0.618
3.14,2.39,0.98,-36.5,37.25,16.375,0.0463,0.7365,0.2783,-0.6148
3.21,2.5,1.02,-39.8125,38.0,23.75,0.0492,0.7389,0.2791,-0.6114
3.25,2.88,0.72,-43.75,35.1875,30.9375,0.0527,0.7412,0.2795,-0.608
3.37,2.85,0.71,-46.1875,29.25,38.9375,0.0569,0.7434,0.2795,-0.6049
3.31,2.67,0.64,-47.75,23.8125,47.125,0.067,0.743,0.2857,-0.6015
3.34,2.56,0.6,-48.875,19.625,54.8125,0.0724,0.7451,0.2849,-0.5988
3.63,2.45,0.6,-49.25,15.375,62.0,0.0782,0.747,0.2835,-0.5962
3.69,2.4,0.7,-49.8125,10.75,70.1875,0.0847,0.7489,0.2817,-0.5939
3.67,2.45,0.85,-50.3125,4.8125,78.1875,0.0917,0.7506,0.2793,-0.5918
3.31,2.43,1.29,-50.875,-1.75,85.6875,0.1029,0.7504,0.2811,-0.5894
2.78,2.3,1.43,-51.125,-8.875,93.1875,0.111,0.7517,0.2776,-0.5879
2.24,2.19,1.49,-51.3125,-15.6875,99.125,0.1195,0.7527,0.2737,-0.5867
1.77,2.07,1.54,-52.1875,-23.125,103.875,0.1285,0.7534,0.2694,-0.5859
1.02,1.79,1.7,-52.4375,-29.9375,108.8125,0.1379,0.7538,0.2648,-0.5854
0.38,1.71,1.79,-52.25,-36.5625,112.9375,0.1506,0.7525,0.2635,-0.5845
-0.21,1.77,1.86,-52.0625,-43.625,115.125,0.1606,0.7522,0.2582,-0.5845
-0.82,2.11,1.88,-53.6875,-50.8125,118.5625,0.171,0.7515,0.2527,-0.585
-0.94,2.12,1.67,-54.4375,-56.0625,121.4375,0.1816,0.7505,0.2468,-0.5856
-1.03,2.0,1.45,-54.625,-60.4375,122.4375,0.1924,0.7491,0.2408,-0.5864
-1.34,1.64,1.15,-54.0,-61.5,120.8125,0.203,0.7476,0.2348,-0.5871
-1.46,1.31,0.93,-53.5625,-57.25,117.8125,0.2134,0.7462,0.2291,-0.5876
-1.54,1.08,0.74,-53.9375,-47.9375,115.0625,0.2234,0.7449,0.2236,-0.5875
-1.65,0.84,0.68,-56.125,-36.125,113.5,0.2332,0.7442,0.2186,-0.5865
-1.46,0.49,0.65,-58.0,-23.75,112.75,0.2429,0.7439,0.2139,-0.5847
-1.31,0.42,0.61,-59.875,-12.9375,111.125,0.2524,0.744,0.2095,-0.5821
-1.19,0.29,0.59,-62.4375,-5.4375,110.0625,0.2618,0.7443,0.2056,-0.579
-0.8,0.23,0.61,-64.6875,-1.125,111.25,0.2713,0.7448,0.2017,-0.5754
-0.64,0.19,0.33,-66.1875,0.9375,111.1875,0.2808,0.7451,0.1979,-0.5717
-0.48,0.21,-0.13,-67.9375,0.4375,111.25,0.2905,0.7453,0.1942,-0.5678
-0.12,0.25,-0.51,-67.75,-2.125,111.3125,0.3001,0.7453,0.1904,-0.5641
-0.03,0.05,-0.48,-65.8125,-6.875,110.75,0.3096,0.7451,0.1863,-0.5606
-0.08,-0.14,-0.38,-62.875,-13.4375,110.0625,0.319,0.7444,0.182,-0.5576
-0.15,-0.2,-0.23,-59.25,-20.3125,108.75,0.3281,0.7435,0.1774,-0.555
-0.18,-0.26,0.04,-55.4375,-26.375,107.875,0.337,0.7423,0.1725,-0.5528
-0.48,-0.35,0.13,-52.25,-29.8125,107.875,0.3458,0.741,0.1673,-0.5508
-0.82,-0.31,0.07,-50.125,-31.375,108.4375,0.3544,0.7396,0.1619,-0.5488
-1.1,0.07,-0.22,-48.25,-30.8125,107.9375,0.3628,0.7381,0.1565,-0.5469
-1.16,0.07,-0.37,-47.0625,-26.5625,107.875,0.3711,0.7368,0.1511,-0.5446
-1.11,0.02,-0.5,-46.1875,-21.0625,107.3125,0.3792,0.7358,0.1459,-0.5419
-1.0,-0.08,-0.48,-44.75,-16.1875,106.125,0.387,0.7349,0.1408,-0.5389
-0.56,-0.28,-0.48,-43.3125,-12.0625,105.5,0.3946,0.7341,0.1359,-0.5357
-0.42,-0.42,-0.6,-42.0,-9.875,105.5,0.402,0.7335,0.1309,-0.5323
-0.37,-0.52,-0.63,-41.0,-9.5625,105.9375,0.4094,0.7327,0.1259,-0.5288
-0.27,-0.44,-0.69,-40.0,-9.5,106.25,0.4167,0.7321,0.1207,-0.5253
-0.39,-0.46,-0.7,-38.9375,-10.0,106.625,0.424,0.7313,0.1155,-0.5217
-0.5,-0.43,-0.71,-38.1875,-11.1875,106.75,0.4311,0.7304,0.1102,-0.5182
-0.97,-0.17,-0.84,-37.8125,-12.25,106.0,0.4382,0.7294,0.1049,-0.5147
-1.2,-0.04,-0.86,-37.25,-13.0625,104.9375,0.4451,0.7284,0.0995,-0.5113
-1.23,0.05,-0.85,-36.625,-14.9375,102.25,0.4519,0.7272,0.0942,-0.508
-1.14,0.06,-0.8,-35.5625,-15.875,100.6875,0.4586,0.726,0.0889,-0.5048
-0.78,0.06,-0.66,-34.3125,-15.0,99.9375,0.465,0.7247,0.0837,-0.5016
-0.66,0.03,-0.69,-33.0,-13.6875,99.375,0.4713,0.7234,0.0785,-0.4983
-0.71,0.01,-0.69,-31.4375,-12.8125,98.5,0.4774,0.7223,0.0732,-0.4949
-0.78,0.17,-0.71,-30.375,-12.125,98.1875,0.4835,0.7211,0.0681,-0.4915
-0.89,0.19,-0.77,-29.1875,-11.1875,97.3125,0.4893,0.72,0.0629,-0.488
-0.95,0.19,-0.86,-28.0625,-9.0625,96.1875,0.4951,0.719,0.0578,-0.4844
-0.9,0.32,-0.93,-26.5,-7.25,95.25,0.5005,0.718,0.0528,-0.4808
-0.8,0.34,-0.92,-26.1875,-5.0625,94.4375,0.506,0.7171,0.0479,-0.4769
-0.69,0.43,-0.94,-23.8125,-4.3125,93.0625,0.5112,0.7162,0.043,-0.4731
-0.69,0.42,-0.87,-21.375,-4.625,92.8125,0.5162,0.7155,0.0381,-0.4693
-0.98,0.48,-0.8,-19.1875,-6.125,92.5,0.521,0.7147,0.033,-0.4656
-1.21,0.59,-0.74,-16.875,-8.0625,89.8125,0.5256,0.7138,0.0279,-0.462
-1.36,0.63,-0.67,-15.25,-10.1875,85.5,0.5298,0.7129,0.0228,-0.4588
-1.19,0.65,-0.61,-13.25,-11.9375,81.9375,0.5338,0.712,0.0179,-0.4558
-1.09,0.62,-0.58,-11.0625,-13.375,79.3125,0.5375,0.7111,0.0129,-0.453
-1.11,0.65,-0.56,-9.75,-14.5,76.75,0.5411,0.7101,0.0081,-0.4504
-1.12,0.71,-0.6,-9.3125,-16.5,73.625,0.5444,0.7091,0.0032,-0.448
-1.18,0.68,-0.56,-8.125,-18.625,69.8125,0.5476,0.7081,-0.0015,-0.4459
-1.22,0.67,-0.51,-7.625,-18.4375,66.3125,0.5505,0.707,-0.006,-0.4439
-1.18,0.63,-0.49,-7.25,-16.9375,62.8125,0.5533,0.706,-0.0103,-0.442
-1.02,0.58,-0.36,-7.0,-14.9375,60.0625,0.556,0.705,-0.0143,-0.4401
-1.06,0.51,-0.39,-6.875,-13.5625,57.75,0.5585,0.7041,-0.0181,-0.4382
-1.13,0.47,-0.39,-6.875,-13.625,55.625,0.5609,0.7032,-0.0219,-0.4363
-1.04,0.38,-0.48,-7.0625,-12.5625,52.125,0.5632,0.7023,-0.0253,-0.4346
-1.07,0.34,-0.55,-6.25,-11.375,48.5,0.5654,0.7015,-0.0285,-0.433
-1.08,0.25,-0.48,-5.9375,-10.1875,45.5625,0.5674,0.7007,-0.0314,-0.4315
-1.0,0.19,-0.41,-5.375,-8.9375,42.3125,0.5692,0.7,-0.0342,-0.43
-0.87,0.03,-0.28,-4.5,-7.25,38.6875,0.5709,0.6994,-0.0367,-0.4286
-0.8,-0.03,-0.22,-3.5,-6.125,35.5,0.5723,0.6989,-0.0389,-0.4272
-0.8,-0.03,-0.22,-2.875,-5.6875,32.25,0.5736,0.6984,-0.041,-0.426
-0.66,-0.16,-0.2,-2.4375,-6.1875,29.875,0.5748,0.6979,-0.043,-0.4249
-0.71,-0.18,-0.25,-2.375,-6.625,28.4375,0.576,0.6975,-0.0449,-0.424
-0.7,-0.18,-0.27,-2.5625,-7.1875,26.4375,0.577,0.697,-0.0467,-0.4231
-0.75,-0.15,-0.29,-2.3125,-7.5625,24.375,0.578,0.6965,-0.0485,-0.4224
-0.75,-0.15,-0.29,-2.4375,-7.375,22.6875,0.5789,0.696,-0.05,-0.4217
-0.75,-0.14,-0.29,-2.75,-6.75,21.1875,0.5798,0.6956,-0.0515,-0.4211
-0.68,-0.14,-0.26,-2.625,-5.4375,19.375,0.58,0.6955,-0.0522,-0.4208
-0.54,-0.18,-0.16,-2.4375,-4.0625,17.4375,0.5803,0.6954,-0.0527,-0.4206
-0.49,-0.15,-0.15,-2.6875,-2.875,15.8125,0.581,0.6951,-0.0537,-0.42
-0.45,-0.15,-0.2,-3.0625,-2.5,14.75,0.5817,0.6948,-0.0546,-0.4194
-0.39,-0.1,-0.25,-3.5625,-2.5,13.5,0.5824,0.6945,-0.0554,-0.4189
-0.39,-0.08,-0.27,-4.0,-2.3125,12.8125,0.5831,0.6942,-0.0562,-0.4185
-0.35,-0.1,-0.26,-4.625,-2.0,11.6875,0.5837,0.6938,-0.0568,-0.418
-0.29,-0.06,-0.29,-4.8125,-1.9375,10.375,0.5844,0.6934,-0.0573,-0.4176
-0.24,0.01,-0.31,-5.375,-2.25,9.5,0.585,0.693,-0.0577,-0.4173
-0.16,-0.04,-0.3,-5.5,-2.25,8.875,0.5856,0.6926,-0.0582,-0.4171
-0.17,-0.07,-0.32,-5.75,-2.0,8.5625,0.5863,0.6922,-0.0586,-0.4167
-0.19,-0.05,-0.3,-6.0625,-1.625,8.3125,0.5869,0.6918,-0.059,-0.4164
