lin_acc_x,lin_acc_y,lin_acc_z,gyro_x,gyro_y,gyro_z,quat_w,quat_x,quat_y,quat_z
-0.53,1.44,1.76,4.375,-26.875,-5.8125,0.6615,0.7326,0.0006,-0.1603
-0.43,1.44,1.94,7.25,-31.0,-7.8125,0.6609,0.7326,-0.0007,-0.1627
-0.31,1.31,1.98,10.375,-34.6875,-10.125,0.6602,0.7327,-0.0022,-0.1654
-0.24,1.12,2.0,10.375,-34.6875,-10.125,0.6602,0.7327,-0.0022,-0.1654
-0.15,0.7,1.94,13.0625,-38.375,-12.4375,0.658,0.7332,-0.0053,-0.1718
-0.11,0.54,1.91,15.25,-42.125,-15.9375,0.6568,0.7333,-0.0069,-0.1753
-0.09,0.44,1.89,15.125,-41.625,-15.8125,0.6556,0.7336,-0.0084,-0.1787
0.04,0.14,1.78,14.875,-39.625,-15.375,0.6544,0.7338,-0.0099,-0.182
0.2,0.0,1.72,14.875,-39.625,-15.375,0.6544,0.7338,-0.0099,-0.182
0.34,-0.16,1.7,14.1875,-36.75,-15.3125,0.6529,0.734,-0.0126,-0.1864
0.44,-0.3,1.71,12.3125,-34.75,-14.4375,0.6508,0.7344,-0.015,-0.1923
0.61,-0.51,1.69,11.4375,-36.75,-14.4375,0.6498,0.7344,-0.0164,-0.1953
0.73,-0.58,1.62,10.625,-39.625,-13.8125,0.6488,0.7344,-0.0178,-0.1985
0.77,-0.6,1.55,10.625,-39.625,-13.8125,0.6488,0.7344,-0.0178,-0.1985
0.75,-0.62,1.48,10.6875,-42.3125,-13.125,0.6478,0.7343,-0.0197,-0.202
0.67,-0.61,1.49,10.6875,-46.125,-12.5625,0.6459,0.7339,-0.0234,-0.209
0.65,-0.58,1.46,10.75,-47.25,-11.3125,0.6449,0.7336,-0.0255,-0.2125
0.62,-0.51,1.45,11.0,-48.1875,-10.0625,0.6458,0.7318,-0.0282,-0.2159
0.65,-0.3,1.47,11.0,-48.1875,-10.0625,0.6458,0.7318,-0.0282,-0.2159
0.57,-0.19,1.49,11.5,-48.8125,-8.5,0.6466,0.7299,-0.0311,-0.2194
0.54,-0.05,1.55,13.25,-53.0,-6.3125,0.6445,0.7294,-0.0364,-0.2264
0.47,0.09,1.52,13.25,-53.0,-6.3125,0.6433,0.7292,-0.0393,-0.23
0.34,0.48,1.63,14.0,-55.4375,-5.25,0.6422,0.7288,-0.0425,-0.2338
0.24,0.64,1.69,14.4375,-57.6875,-4.125,0.6422,0.7288,-0.0425,-0.2338
0.18,0.82,1.72,15.25,-58.8125,-3.5625,0.6409,0.7285,-0.0458,-0.2375
0.15,0.95,1.75,16.3125,-59.8125,-4.0,0.6382,0.7279,-0.0524,-0.2453
0.09,0.97,1.68,17.4375,-61.125,-4.5,0.6367,0.7276,-0.0558,-0.2493
0.08,0.95,1.63,18.375,-61.375,-5.1875,0.6351,0.7274,-0.0591,-0.2532
0.09,0.98,1.52,18.5,-60.6875,-5.875,0.6351,0.7274,-0.0591,-0.2532
0.19,0.93,1.42,17.75,-59.1875,-6.1875,0.6331,0.7269,-0.0637,-0.2583
0.24,0.87,1.39,17.0,-57.1875,-6.25,0.6317,0.7249,-0.0699,-0.2658
0.27,0.79,1.32,16.6875,-55.3125,-6.5625,0.6301,0.7246,-0.0728,-0.2694
0.28,0.63,1.19,16.9375,-54.0,-7.0625,0.6286,0.7243,-0.0756,-0.2729
0.31,0.57,1.08,17.0,-52.6875,-6.8125,0.6286,0.7243,-0.0756,-0.2729
0.39,0.55,0.98,17.0625,-50.75,-6.0625,0.627,0.7241,-0.0785,-0.2764
0.41,0.49,0.86,17.25,-48.0,-5.125,0.624,0.7238,-0.0837,-0.2823
0.46,0.34,0.79,17.9375,-44.6875,-4.125,0.6225,0.7238,-0.0862,-0.285
0.51,0.27,0.77,18.625,-42.9375,-3.3125,0.621,0.7238,-0.0887,-0.2876
0.51,0.21,0.71,18.5,-42.875,-2.0,0.621,0.7238,-0.0887,-0.2876
0.45,0.16,0.62,18.625,-43.5625,-0.875,0.6193,0.7236,-0.092,-0.2906
0.35,0.01,0.58,18.6875,-44.25,-0.25,0.6163,0.7234,-0.0975,-0.2957
0.3,0.02,0.56,18.9375,-43.6875,0.0625,0.6147,0.7233,-0.1002,-0.2982
0.3,0.02,0.57,18.9375,-42.4375,0.5625,0.6133,0.7233,-0.1028,-0.3004
0.37,-0.06,0.57,18.8125,-40.625,1.1875,0.6133,0.7233,-0.1028,-0.3004
0.55,-0.15,0.46,20.25,-37.0,2.8125,0.6117,0.7233,-0.1057,-0.3025
0.55,-0.37,0.47,20.25,-37.0,2.8125,0.6086,0.7236,-0.1108,-0.306
0.56,-0.47,0.44,21.9375,-34.1875,4.6875,0.6071,0.7238,-0.1135,-0.3075
0.67,-0.51,0.6,22.4375,-32.3125,5.8125,0.6057,0.7241,-0.1161,-0.3088
0.67,-0.45,0.65,22.5625,-30.5625,8.125,0.6057,0.7241,-0.1161,-0.3088
0.67,-0.38,0.71,24.0625,-30.875,13.0,0.604,0.7243,-0.1197,-0.3102
0.56,0.0,0.9,24.0625,-30.875,13.0,0.601,0.7249,-0.1259,-0.3122
0.46,0.29,0.97,25.125,-32.375,13.8125,0.5995,0.7251,-0.1292,-0.3133
0.35,0.62,1.06,25.0625,-35.0,15.3125,0.598,0.7252,-0.1328,-0.3145
0.26,0.92,1.08,24.75,-37.5625,16.4375,0.598,0.7252,-0.1328,-0.3145
0.31,1.19,0.97,24.6875,-39.5625,16.5625,0.5965,0.7252,-0.1365,-0.3158
0.29,1.01,0.97,25.75,-40.5,16.1875,0.5931,0.7253,-0.144,-0.3185
0.22,0.71,0.99,28.125,-40.75,15.875,0.5911,0.7255,-0.1478,-0.3199
0.22,0.38,1.02,30.4375,-40.8125,15.25,0.5891,0.7258,-0.1516,-0.3212
0.28,-0.15,0.89,31.5625,-40.1875,15.75,0.5891,0.7258,-0.1516,-0.3212
0.26,-0.31,0.77,30.5,-36.375,20.0625,0.5871,0.726,-0.1559,-0.3224
0.18,-0.39,0.81,30.5,-36.375,20.0625,0.5836,0.7265,-0.1635,-0.3239
0.19,-0.29,0.96,29.375,-33.5625,20.6875,0.5824,0.7265,-0.1671,-0.3242
0.1,-0.1,0.95,23.4375,-28.875,23.5,0.5816,0.7263,-0.1703,-0.3243
0.0,0.11,0.88,18.0625,-26.0625,24.75,0.5816,0.7263,-0.1703,-0.3243
-0.09,0.35,0.74,12.5,-21.9375,24.25,0.5812,0.7261,-0.173,-0.3241
-0.27,0.73,0.44,12.5,-21.9375,24.25,0.5808,0.7253,-0.1784,-0.3238
-0.42,0.8,0.37,7.1875,-16.375,23.375,0.5812,0.7247,-0.1803,-0.3232
-0.55,0.86,0.33,1.625,-8.875,22.6875,0.582,0.7242,-0.1815,-0.3222
-0.64,0.89,-0.02,-3.5625,-0.5,22.0625,0.582,0.7242,-0.1815,-0.3222
-0.7,0.86,-0.23,-9.25,15.75,23.625,0.5834,0.7238,-0.1819,-0.3203
-0.72,0.79,-0.4,-9.25,15.75,23.625,0.5865,0.7231,-0.1826,-0.3158
-0.72,0.67,-0.49,-10.0,22.4375,25.3125,0.5883,0.723,-0.1827,-0.3129
-0.51,0.38,-0.67,-9.625,26.75,27.3125,0.5898,0.7228,-0.1829,-0.3102
-0.45,0.23,-0.7,-8.1875,24.625,27.1875,0.5898,0.7228,-0.1829,-0.3102
-0.42,0.02,-0.63,-5.375,18.9375,25.125,0.5914,0.7228,-0.1826,-0.3073
-0.43,-0.22,-0.58,-5.375,18.9375,25.125,0.5935,0.7225,-0.1838,-0.3033
-0.4,-0.59,-0.67,-1.4375,10.125,21.25,0.5937,0.7224,-0.1849,-0.3024
-0.36,-0.81,-0.71,3.0625,0.0,16.3125,0.5934,0.7223,-0.1863,-0.3024
-0.33,-1.01,-0.74,7.4375,-10.8125,11.8125,0.5934,0.7223,-0.1863,-0.3024
-0.23,-1.29,-0.74,14.6875,-29.4375,1.0625,0.5921,0.7223,-0.1882,-0.3039
-0.19,-1.38,-0.72,14.6875,-29.4375,1.0625,0.5891,0.7222,-0.1921,-0.3074
-0.31,-1.44,-0.67,16.5,-34.1875,-3.125,0.5873,0.7222,-0.1939,-0.3097
-0.39,-1.41,-0.6,16.375,-36.75,-7.625,0.5855,0.7222,-0.1956,-0.312
-0.29,-1.37,-0.31,15.875,-36.25,-7.625,0.5855,0.7222,-0.1956,-0.312
-0.2,-1.38,-0.18,15.9375,-35.8125,-5.9375,0.5838,0.7221,-0.1974,-0.3143
-0.17,-1.35,-0.16,15.375,-35.125,-5.875,0.5804,0.722,-0.2009,-0.3186
-0.24,-1.39,-0.1,14.75,-33.8125,-6.875,0.5789,0.7219,-0.2023,-0.3207
-0.27,-1.49,-0.01,14.0,-32.5,-7.875,0.5773,0.7218,-0.2037,-0.3228
-0.23,-1.53,0.02,12.4375,-31.0625,-8.5625,0.5773,0.7218,-0.2037,-0.3228
-0.17,-1.59,0.02,9.875,-29.0,-8.0625,0.576,0.7216,-0.2049,-0.3248
-0.17,-1.5,-0.07,6.5,-26.125,-7.625,0.5738,0.7213,-0.2064,-0.3286
-0.1,-1.38,-0.07,2.875,-23.1875,-7.375,0.573,0.721,-0.2066,-0.3303
-0.14,-1.27,0.0,-0.6875,-19.1875,-6.0,0.5729,0.7205,-0.2068,-0.3315
-0.2,-0.97,0.07,-5.125,-14.125,-4.75,0.5729,0.7205,-0.2068,-0.3315
-0.29,-0.84,0.1,-9.0625,-7.625,-3.25,0.5732,0.7198,-0.2068,-0.3323
-0.26,-0.75,0.12,-11.8125,-0.4375,-2.0625,0.5749,0.7188,-0.2055,-0.3325
-0.3,-0.66,0.12,-14.625,7.25,-1.0625,0.5762,0.7184,-0.2043,-0.332
-0.41,-0.55,0.03,-17.75,13.5,-0.6875,0.5777,0.718,-0.2027,-0.3312
-0.46,-0.51,-0.07,-19.875,19.375,-1.3125,0.5777,0.718,-0.2027,-0.3312
-0.58,-0.47,-0.07,-22.125,25.9375,-2.0,0.5794,0.7177,-0.2007,-0.3301
-0.57,-0.44,-0.21,-24.75,34.5625,-1.1875,0.5839,0.7172,-0.1955,-0.3263
-0.19,-0.45,-0.21,-27.0625,42.375,1.6875,0.5865,0.717,-0.1924,-0.3238
0.02,-0.58,-0.07,-30.5,47.8125,1.8125,0.5892,0.7168,-0.189,-0.3214
0.04,-0.53,-0.22,-31.6875,50.3125,-1.25,0.5892,0.7168,-0.189,-0.3214
-0.55,-0.32,-0.47,-31.875,53.1875,-5.75,0.5919,0.7167,-0.1851,-0.3189
-0.41,-0.11,-0.54,-31.8125,60.6875,-5.9375,0.5974,0.7172,-0.1765,-0.3124
-0.52,-0.09,-0.5,-30.4375,68.5,-1.625,0.6002,0.7177,-0.1718,-0.3085
-0.93,-0.22,-0.47,-28.6875,74.0,-3.4375,0.6028,0.7186,-0.1664,-0.3043
-0.96,-0.51,-0.55,-27.375,83.1875,-7.625,0.6028,0.7186,-0.1664,-0.3043
-0.82,-0.65,-0.58,-26.125,94.5,-9.0625,0.6055,0.7198,-0.1603,-0.2994
-0.48,-0.78,-0.75,-25.5,102.0625,-8.5625,0.6108,0.7225,-0.1474,-0.2883
-0.02,-0.83,-1.01,-25.875,104.5,-8.75,0.6135,0.7238,-0.1407,-0.283
-0.12,-0.75,-0.93,-26.625,102.8125,-12.0,0.6159,0.7249,-0.134,-0.278
-0.14,-0.49,-0.84,-27.625,98.8125,-14.75,0.6159,0.7249,-0.134,-0.278
-0.19,-0.1,-0.75,-29.0,92.625,-15.3125,0.6183,0.7256,-0.1276,-0.2735
-0.29,0.79,-0.45,-30.3125,84.4375,-15.6875,0.623,0.7264,-0.1158,-0.266
-0.33,1.12,-0.29,-29.6875,74.5625,-16.4375,0.6248,0.7266,-0.1108,-0.2633
-0.4,1.26,-0.12,-26.5,63.875,-18.0,0.6262,0.7269,-0.1062,-0.2612
-0.44,1.16,0.02,-22.0625,54.25,-19.875,0.6262,0.7269,-0.1062,-0.2612
-0.66,0.7,0.36,-17.1875,46.125,-21.0,0.6272,0.7272,-0.1021,-0.2596
-0.79,0.51,0.42,-12.8125,39.625,-20.6875,0.6283,0.728,-0.0952,-0.2573
-0.92,0.35,0.48,-8.9375,36.625,-18.8125,0.6287,0.7285,-0.0922,-0.256
-1.04,0.19,0.71,-6.5625,35.0625,-16.1875,0.629,0.7291,-0.0894,-0.2546
-1.07,0.23,0.78,-5.5625,34.0625,-13.1875,0.629,0.7291,-0.0894,-0.2546
-1.16,0.4,0.87,-5.875,33.0,-9.5,0.6294,0.7296,-0.0869,-0.2532
-1.27,0.58,0.91,-6.8125,32.1875,-5.5,0.6306,0.7302,-0.0828,-0.2497
-1.5,1.08,0.86,-7.6875,31.8125,-1.25,0.6314,0.7303,-0.0811,-0.2476
-1.63,1.29,0.83,-8.6875,32.25,3.25,0.6324,0.7305,-0.0797,-0.2452
-1.8,1.42,0.78,-9.3125,32.125,8.375,0.6324,0.7305,-0.0797,-0.2452
-1.9,1.26,0.75,-8.8125,31.0,12.75,0.6334,0.7306,-0.0787,-0.2427
-1.96,0.98,0.8,-7.0,29.0,16.4375,0.6352,0.7308,-0.0778,-0.2375
-1.96,0.66,0.82,-4.625,24.1875,19.0,0.6358,0.7309,-0.078,-0.2354
-1.98,0.3,0.81,-1.875,17.5,19.6875,0.6362,0.731,-0.0786,-0.2339
-1.96,-0.3,0.75,-0.0625,9.3125,18.3125,0.6362,0.731,-0.0786,-0.2339
-1.97,-0.6,0.68,2.0,1.3125,15.625,0.6364,0.731,-0.0797,-0.2331
-1.98,-0.87,0.57,4.25,-5.0625,11.0,0.636,0.7311,-0.0818,-0.2331
-2.03,-1.28,0.54,6.125,-10.5625,5.5,0.6354,0.7312,-0.0828,-0.2339
-2.07,-1.45,0.5,7.4375,-14.9375,-0.3125,0.6348,0.7313,-0.0834,-0.2353
-2.12,-1.52,0.38,6.5625,-17.3125,-5.375,0.6348,0.7313,-0.0834,-0.2353
-2.2,-1.54,0.19,4.25,-17.0,-9.1875,0.6343,0.7313,-0.0837,-0.2366
-2.26,-1.5,0.15,1.8125,-13.8125,-11.875,0.6335,0.7311,-0.0834,-0.2393
-2.19,-1.41,0.13,-0.375,-8.0625,-13.0625,0.6334,0.731,-0.0826,-0.2401
-2.11,-1.31,0.19,-2.5625,-1.0,-13.0625,0.6334,0.731,-0.0814,-0.2404
-1.97,-1.22,0.2,-4.6875,5.875,-12.8125,0.6334,0.731,-0.0814,-0.2404
-1.73,-0.87,0.29,-6.375,12.0625,-11.625,0.6337,0.731,-0.0798,-0.2404
-1.62,-0.73,0.29,-7.9375,16.9375,-9.875,0.6346,0.7308,-0.0764,-0.2391
-1.55,-0.52,0.32,-10.0625,20.0625,-8.25,0.6354,0.7307,-0.0746,-0.2383
-1.48,-0.02,0.4,-12.5,21.25,-6.125,0.6364,0.7303,-0.073,-0.2373
-1.47,0.3,0.51,-14.75,20.5625,-3.625,0.6364,0.7303,-0.073,-0.2373
-1.42,0.56,0.5,-16.0,18.3125,-1.5625,0.6376,0.7299,-0.071,-0.2359
-1.35,0.72,0.47,-15.3125,14.9375,-0.0625,0.6396,0.7288,-0.0692,-0.2344
-1.15,0.64,0.61,-12.8125,10.125,0.9375,0.6401,0.7284,-0.0688,-0.2342
-1.06,0.45,0.66,-9.125,3.8125,0.8125,0.6405,0.728,-0.069,-0.2344
-0.96,0.3,0.64,-5.625,-3.125,0.875,0.6405,0.728,-0.069,-0.2344
-0.85,-0.11,0.55,-3.25,-9.5,1.25,0.6411,0.7278,-0.0682,-0.2338
-0.8,-0.24,0.56,-2.0,-14.6875,0.875,0.6412,0.7269,-0.0701,-0.2358
-0.71,-0.31,0.51,-1.6875,-19.25,0.625,0.6411,0.7264,-0.0714,-0.2372
-0.69,-0.38,0.49,-1.6875,-22.4375,1.0,0.6411,0.7258,-0.0727,-0.2386
-0.6,-0.53,0.54,-1.3125,-24.375,1.0,0.6411,0.7258,-0.0727,-0.2386
-0.53,-0.63,0.46,-0.625,-24.3125,1.0625,0.6414,0.7253,-0.0731,-0.2391
-0.49,-0.74,0.35,-0.0625,-21.8125,1.4375,0.6412,0.7245,-0.0754,-0.2414
-0.5,-0.8,0.33,-0.4375,-17.875,2.5625,0.6412,0.7241,-0.0764,-0.242
-0.4,-1.02,0.4,-1.375,-13.625,3.875,0.6414,0.7238,-0.0771,-0.2422
-0.39,-1.11,0.4,-1.9375,-8.5,5.375,0.6414,0.7238,-0.0771,-0.2422
-0.36,-1.11,0.37,-3.0,-3.375,7.25,0.6418,0.7236,-0.0777,-0.2421
-0.36,-1.06,0.34,-4.1875,1.1875,9.5,0.6428,0.7231,-0.0784,-0.2405
-0.39,-0.96,0.22,-4.9375,5.6875,11.5,0.6435,0.7228,-0.0786,-0.2393
-0.44,-0.79,0.23,-5.625,9.1875,13.875,0.6443,0.7226,-0.0789,-0.2377
-0.5,-0.58,0.24,-6.4375,11.3125,16.125,0.6443,0.7226,-0.0789,-0.2377
-0.47,-0.04,0.28,-7.0625,11.625,18.4375,0.645,0.7223,-0.0797,-0.2365
-0.53,0.27,0.33,-7.0,10.1875,20.375,0.6469,0.7216,-0.081,-0.2332
-0.62,0.6,0.39,-7.375,7.625,21.6875,0.6478,0.7211,-0.082,-0.2318
-0.75,1.11,0.59,-7.1875,4.1875,23.0625,0.6486,0.7206,-0.0833,-0.2304
-0.82,1.27,0.58,-6.4375,0.75,23.8125,0.6486,0.7206,-0.0833,-0.2304
-0.85,1.25,0.53,-3.875,-3.125,23.3125,0.6492,0.7201,-0.0852,-0.2297
-0.86,1.03,0.45,0.375,-7.0,21.5625,0.6495,0.7197,-0.0888,-0.2285
-0.81,0.12,0.28,5.4375,-11.3125,18.875,0.6491,0.7198,-0.0908,-0.2285
-0.77,-0.36,0.19,9.25,-15.125,15.5625,0.6485,0.7201,-0.0927,-0.2289
-0.69,-0.77,0.06,12.0,-18.25,12.1875,0.6485,0.7201,-0.0927,-0.2289
-0.53,-1.43,-0.03,14.3125,-20.5625,8.1875,0.6477,0.7205,-0.0942,-0.2292
-0.52,-1.69,-0.09,16.0,-23.0625,3.1875,0.6453,0.7213,-0.0977,-0.2319
-0.46,-1.82,-0.21,16.625,-25.4375,-1.8125,0.644,0.7217,-0.0991,-0.2337
-0.42,-1.89,-0.24,16.875,-26.75,-5.9375,0.6426,0.7221,-0.1003,-0.2357
-0.43,-1.81,-0.53,15.8125,-26.4375,-9.0,0.6426,0.7221,-0.1003,-0.2357
-0.49,-1.57,-0.68,13.125,-24.5625,-10.75,0.6414,0.7224,-0.1011,-0.2376
-0.57,-1.28,-0.71,9.6875,-21.8125,-11.4375,0.6396,0.7227,-0.1023,-0.2411
-0.62,-0.91,-0.75,6.0625,-19.3125,-11.0,0.639,0.7226,-0.1027,-0.2428
-0.8,-0.18,-0.78,3.6875,-17.625,-10.4375,0.6385,0.7224,-0.103,-0.2443
-0.89,0.15,-0.75,2.0625,-16.5625,-9.6875,0.6385,0.7224,-0.103,-0.2443
-1.0,0.47,-0.76,0.3125,-16.0625,-8.1875,0.6385,0.7223,-0.1028,-0.2452
-1.2,1.04,-0.64,-1.4375,-15.6875,-6.375,0.6382,0.7215,-0.1037,-0.2477
-1.32,1.3,-0.62,-2.5,-16.125,-4.875,0.6381,0.7211,-0.1044,-0.2491
-1.39,1.44,-0.53,-1.4375,-17.8125,-4.25,0.6378,0.7207,-0.1053,-0.2505
-1.37,1.57,-0.61,0.9375,-20.625,-3.3125,0.6378,0.7207,-0.1053,-0.2505
-1.45,1.4,-0.72,3.6875,-22.875,-2.5625,0.6372,0.7205,-0.1067,-0.2522
-1.46,1.14,-0.72,5.875,-24.625,-2.6875,0.6358,0.7201,-0.1093,-0.2555
-1.44,0.8,-0.8,7.125,-25.5625,-3.3125,0.635,0.72,-0.1106,-0.2571
-1.36,0.05,-0.93,7.9375,-24.375,-3.375,0.6342,0.7201,-0.1116,-0.2584
-1.32,-0.24,-0.95,8.6875,-20.875,-3.625,0.6342,0.7201,-0.1116,-0.2584
-1.16,-0.44,-0.93,9.4375,-17.125,-4.4375,0.6331,0.7202,-0.1133,-0.2604
-1.03,-0.64,-0.94,11.25,-15.0,-5.1875,0.6309,0.7209,-0.1149,-0.2626
-0.81,-1.16,-0.94,14.8125,-15.625,-6.5,0.6295,0.7216,-0.1157,-0.264
-0.77,-1.44,-0.93,17.625,-17.8125,-7.75,0.6279,0.7222,-0.1166,-0.2654
-0.77,-1.7,-1.0,18.6875,-19.6875,-9.0625,0.6279,0.7222,-0.1166,-0.2654
-0.74,-1.83,-0.96,18.6875,-20.5625,-10.1875,0.6264,0.7228,-0.1176,-0.2671
-0.72,-1.83,-0.96,17.5,-21.9375,-10.875,0.6234,0.7238,-0.1193,-0.2707
-0.77,-1.78,-0.94,16.1875,-22.625,-11.5625,0.6219,0.7242,-0.1201,-0.2725
-0.82,-1.64,-0.91,15.25,-22.625,-12.125,0.6205,0.7246,-0.1208,-0.2744
-0.92,-1.31,-0.83,14.4375,-22.3125,-12.25,0.6205,0.7246,-0.1208,-0.2744
-0.95,-1.13,-0.78,13.4375,-21.5,-11.875,0.6191,0.7249,-0.1219,-0.2765
-0.93,-0.94,-0.75,12.6875,-21.0625,-11.0625,0.6166,0.7254,-0.1234,-0.2799
-0.9,-0.73,-0.74,11.9375,-20.875,-9.75,0.6155,0.7256,-0.1243,-0.2815
-0.82,-0.45,-0.5,11.1875,-21.375,-8.1875,0.6145,0.7256,-0.1253,-0.2831
-0.75,-0.4,-0.45,10.5,-21.75,-5.9375,0.6145,0.7256,-0.1253,-0.2831
-0.73,-0.42,-0.33,10.0625,-21.3125,-3.375,0.6135,0.7256,-0.1266,-0.2846
-0.77,-0.48,-0.44,9.75,-21.6875,-1.25,0.6118,0.7255,-0.1293,-0.2872
-0.82,-0.48,-0.47,8.5,-23.1875,0.4375,0.6112,0.7253,-0.1309,-0.2886
-0.93,-0.45,-0.46,6.25,-24.375,1.5,0.6098,0.7255,-0.1314,-0.2907
-0.98,-0.36,-0.42,4.375,-23.8125,2.25,0.6098,0.7255,-0.1314,-0.2907
-1.1,-0.29,-0.39,2.8125,-21.25,2.6875,0.6093,0.725,-0.1331,-0.2922
-1.17,-0.34,-0.46,1.875,-18.0625,2.875,0.6088,0.7243,-0.1353,-0.2939
-1.21,-0.39,-0.49,1.3125,-15.25,2.625,0.6087,0.7241,-0.136,-0.2945
-1.16,-0.55,-0.55,0.8125,-12.25,2.0625,0.6086,0.7238,-0.1366,-0.295
-1.17,-0.57,-0.58,-0.5,-9.5,1.75,0.6086,0.7238,-0.1366,-0.295
-1.12,-0.53,-0.56,-2.1875,-8.375,0.8125,0.6075,0.7243,-0.1359,-0.2965
-1.12,-0.47,-0.53,-3.25,-7.9375,-0.75,0.6052,0.7253,-0.134,-0.2995
-1.06,-0.47,-0.62,-3.6875,-7.1875,-2.25,0.6042,0.7258,-0.1329,-0.301
-1.07,-0.46,-0.61,-4.5,-5.8125,-3.0625,0.6032,0.7263,-0.1317,-0.3022
-1.04,-0.38,-0.63,-5.875,-3.5,-3.5625,0.6032,0.7263,-0.1317,-0.3022
-1.01,-0.18,-0.58,-8.0,-1.125,-3.5625,0.6024,0.7267,-0.1304,-0.3034
-1.03,0.42,-0.41,-10.4375,0.25,-3.1875,0.6037,0.7255,-0.1295,-0.3039
-1.03,0.71,-0.33,-12.5625,0.0,-2.1875,0.6045,0.7249,-0.1291,-0.3042
-1.05,1.02,-0.2,-13.6875,-0.75,-1.3125,0.6053,0.7241,-0.1287,-0.3044
-1.11,1.65,0.06,-14.5,-1.125,0.0625,0.6053,0.7241,-0.1287,-0.3044
-1.14,1.91,0.13,-14.8125,-2.25,1.375,0.6063,0.7233,-0.1285,-0.3046
-1.17,2.08,0.22,-13.5625,-3.5,2.5,0.6078,0.7217,-0.1287,-0.3051
-1.18,2.06,0.29,-10.625,-4.875,2.8125,0.6083,0.7212,-0.129,-0.3055
-1.1,1.69,0.39,-7.1875,-6.0625,2.25,0.6085,0.7207,-0.1293,-0.3058
-1.04,1.44,0.37,-4.75,-6.875,1.375,0.6085,0.7207,-0.1293,-0.3058
-0.97,1.15,0.36,-2.6875,-7.4375,0.3125,0.608,0.7202,-0.1309,-0.3075
-0.68,0.47,0.32,-0.5,-7.875,-1.9375,0.6076,0.7199,-0.1314,-0.3088
-0.6,0.22,0.31,1.375,-8.375,-4.75,0.6071,0.7198,-0.1315,-0.3097
-0.49,0.02,0.29,2.6875,-9.125,-7.4375,0.6064,0.72,-0.1315,-0.3107
-0.35,-0.24,0.28,5.1875,-9.0625,-10.3125,0.6064,0.72,-0.1315,-0.3107
-0.05,-1.14,0.13,8.5,-8.5625,-14.0,0.605,0.7202,-0.1322,-0.3127
0.04,-1.62,0.17,10.0,-7.0625,-17.375,0.6028,0.7213,-0.1311,-0.3151
0.11,-1.98,0.18,8.6875,-5.25,-19.5,0.6019,0.7217,-0.1302,-0.3162
0.18,-2.15,0.17,5.3125,-2.375,-19.3125,0.6014,0.7219,-0.129,-0.317
0.11,-2.11,0.18,0.1875,2.0,-18.25,0.6014,0.7219,-0.129,-0.317
0.1,-1.92,0.09,-5.3125,8.625,-16.0,0.6014,0.722,-0.1274,-0.3173
0.04,-1.6,0.01,-9.75,18.1875,-12.4375,0.6027,0.7224,-0.1232,-0.3159
-0.2,-1.0,0.19,-12.875,26.9375,-9.125,0.6039,0.7225,-0.1206,-0.3142
-0.34,-0.62,0.26,-15.4375,35.0,-6.0625,0.6053,0.7228,-0.1179,-0.312
-0.37,-0.2,0.32,-16.875,41.5625,-1.5625,0.6053,0.7228,-0.1179,-0.312
-0.29,0.13,0.32,-16.875,45.0,5.0,0.6069,0.7231,-0.1155,-0.3091
-0.2,0.58,0.72,-16.3125,43.9375,10.6875,0.6103,0.7233,-0.1119,-0.3032
-0.34,0.76,0.88,-16.625,38.0625,12.625,0.6119,0.723,-0.1107,-0.301
-0.45,1.01,1.07,-17.625,28.5625,12.125,0.6133,0.7225,-0.11,-0.2995
-0.65,1.36,1.3,-16.0625,17.375,11.3125,0.6133,0.7225,-0.11,-0.2995
-0.73,1.34,1.23,-10.8125,7.25,9.5,0.6143,0.722,-0.11,-0.2986
-0.8,1.05,1.24,-4.125,0.375,6.375,0.6147,0.7217,-0.1106,-0.2985
-0.87,0.67,1.16,1.3125,-3.9375,1.25,0.6143,0.7218,-0.1108,-0.2991
-0.77,-0.12,0.88,4.25,-6.875,-4.375,0.6136,0.7219,-0.1108,-0.3
-0.67,-0.41,0.73,5.5625,-8.375,-9.0625,0.6136,0.7219,-0.1108,-0.3
-0.61,-0.62,0.63,5.5625,-7.625,-13.4375,0.6129,0.7222,-0.1105,-0.3012
-0.56,-0.73,0.55,5.6875,-6.5625,-17.625,0.6119,0.7225,-0.1099,-0.3024
-0.48,-0.7,0.55,8.0,-4.5,-20.4375,0.6109,0.723,-0.1091,-0.3037
-0.39,-0.87,0.52,11.75,-1.0625,-22.0625,0.6096,0.7237,-0.1082,-0.3048
-0.27,-1.1,0.61,12.6875,3.375,-22.25,0.6083,0.7247,-0.1069,-0.3056
-0.14,-1.22,0.67,11.625,6.875,-20.8125,0.6071,0.7256,-0.1057,-0.3063
-0.08,-1.05,0.66,8.6875,9.6875,-18.0625,0.6061,0.7265,-0.1043,-0.3065
-0.01,-0.88,0.66,6.5625,11.0625,-14.875,0.6055,0.7272,-0.103,-0.3065
0.0,-0.75,0.61,5.6875,11.25,-12.375,0.6049,0.7279,-0.1018,-0.3065
0.25,-0.62,0.52,6.3125,11.5,-10.8125,0.6043,0.7286,-0.1007,-0.3062
0.32,-0.65,0.56,7.125,11.1875,-8.5,0.6038,0.7294,-0.0997,-0.3058
0.33,-0.68,0.69,6.875,8.25,-6.75,0.6032,0.73,-0.0991,-0.3056
0.33,-0.6,0.95,5.8125,3.125,-5.125,0.6028,0.7304,-0.0988,-0.3057
0.31,-0.46,1.05,4.8125,-2.25,-3.875,0.6024,0.7307,-0.0988,-0.3059
0.25,-0.28,1.09,4.5625,-7.125,-2.625,0.6019,0.7307,-0.0991,-0.3065
0.19,-0.12,1.12,5.3125,-10.5625,-2.625,0.6011,0.7307,-0.1003,-0.3079
0.08,-0.05,0.98,7.125,-11.75,-3.25,0.6005,0.7307,-0.101,-0.3087
0.06,-0.09,0.94,8.75,-10.75,-3.625,0.5997,0.7309,-0.1015,-0.3094
0.04,-0.14,0.97,9.375,-8.125,-3.8125,0.599,0.7312,-0.1019,-0.3101
0.17,-0.02,1.07,8.75,-5.1875,-3.5625,0.5983,0.7316,-0.1022,-0.3105
0.24,0.1,1.15,8.375,-3.3125,-3.0625,0.5978,0.7319,-0.1021,-0.3106
0.28,0.22,1.19,8.3125,-2.5,-2.8125,0.5985,0.7311,-0.1024,-0.3112
0.32,0.33,1.22,9.0625,-2.625,-2.5625,0.5978,0.7315,-0.1026,-0.3114
0.39,0.43,1.14,10.4375,-2.5625,-2.0625,0.5971,0.732,-0.1029,-0.3116
0.43,0.42,1.13,11.6875,-2.75,-1.0625,0.5963,0.7325,-0.1033,-0.3117
0.48,0.49,1.23,12.75,-3.6875,0.375,0.5955,0.733,-0.1039,-0.3118
0.54,0.5,1.25,13.6875,-5.875,1.4375,0.5946,0.7336,-0.1046,-0.312
0.62,0.61,1.23,15.5,-8.8125,2.625,0.5936,0.7341,-0.1057,-0.3123
0.6,0.65,1.17,16.8125,-12.5,3.625,0.5942,0.7332,-0.1075,-0.3127
0.47,0.79,1.11,17.375,-16.0625,4.75,0.5931,0.7336,-0.109,-0.3133
0.39,1.45,1.1,16.625,-19.5,6.1875,0.592,0.7339,-0.111,-0.3141
0.3,1.88,1.23,15.25,-22.875,9.0,0.5911,0.7339,-0.113,-0.3149
0.17,2.4,1.31,14.0,-26.8125,12.625,0.5903,0.7338,-0.1155,-0.3158
-0.03,2.89,1.47,13.0,-31.0625,16.0625,0.5896,0.7335,-0.1185,-0.3168
-0.44,3.54,1.56,13.875,-36.0625,18.375,0.5889,0.733,-0.1218,-0.318
-0.59,3.34,1.45,18.25,-40.25,20.1875,0.5878,0.7326,-0.1256,-0.3193
