lin_acc_x,lin_acc_y,lin_acc_z,gyro_x,gyro_y,gyro_z,quat_w,quat_x,quat_y,quat_z
-1.45,-0.55,0.51,-25.1875,135.875,-33.0,0.3487,0.458,-0.5014,-0.6459
-1.45,-0.55,0.51,-26.375,136.375,-33.8125,0.3536,0.4661,-0.4946,-0.6428
-1.17,-0.62,0.51,-26.875,132.0625,-33.0625,0.3584,0.4738,-0.4879,-0.6396
-1.19,-0.67,0.56,-29.1875,127.125,-35.5,0.3629,0.4812,-0.481,-0.6368
-1.19,-0.67,0.56,-32.3125,122.75,-39.8125,0.3669,0.4884,-0.4738,-0.6343
-1.29,-0.62,0.61,-35.5,116.375,-44.0,0.3703,0.4949,-0.4668,-0.6325
-1.53,-0.31,0.52,-36.0625,106.4375,-47.0,0.3735,0.5013,-0.4595,-0.6309
-1.51,-0.3,0.9,-35.9375,98.25,-49.0625,0.3762,0.5073,-0.4525,-0.6296
-1.61,-0.17,1.03,-37.5,96.0,-50.375,0.3787,0.5131,-0.4452,-0.6285
-2.33,0.33,0.71,-39.375,98.5,-51.8125,0.3813,0.519,-0.4377,-0.6274
-2.79,0.32,1.02,-43.5,119.4375,-48.25,0.3848,0.5255,-0.4296,-0.6254
-1.96,0.65,1.23,-47.375,143.375,-35.6875,0.3903,0.5328,-0.4208,-0.6219
0.0,0.85,0.91,-38.5,133.125,-25.1875,0.3954,0.5394,-0.4133,-0.618
-0.7,0.01,0.87,-31.875,107.1875,-44.6875,0.3982,0.5454,-0.4059,-0.6157
-2.22,0.44,1.25,-34.375,89.8125,-72.3125,0.3991,0.5514,-0.3978,-0.6152
-2.49,0.93,1.28,-38.9375,85.1875,-68.4375,0.3995,0.5563,-0.3903,-0.6153
-1.98,0.9,1.38,-38.25,89.5625,-52.375,0.4015,0.5614,-0.3829,-0.6141
-1.47,0.86,1.34,-37.1875,98.625,-52.125,0.4037,0.5669,-0.3751,-0.6123
-1.37,1.02,1.29,-35.9375,107.0,-58.75,0.4058,0.5731,-0.3668,-0.6103
-1.16,0.93,1.31,-34.375,110.5625,-60.5625,0.4077,0.5794,-0.3582,-0.6081
-0.58,0.3,1.0,-34.5,110.6875,-61.0,0.4078,0.5847,-0.3514,-0.607
-0.38,0.13,0.96,-36.9375,109.5625,-63.75,0.4095,0.5909,-0.3425,-0.6048
-0.32,0.13,0.91,-39.625,106.5625,-66.0,0.4112,0.5968,-0.3335,-0.6029
-0.14,0.16,0.82,-40.6875,102.5,-65.0,0.4128,0.6024,-0.3246,-0.6011
0.17,0.01,0.72,-39.0,97.75,-64.0625,0.4142,0.6078,-0.3159,-0.5994
0.33,-0.02,0.77,-36.625,91.5,-63.8125,0.4153,0.6128,-0.3076,-0.5978
0.49,0.0,0.95,-35.25,84.875,-62.0,0.4161,0.6174,-0.2996,-0.5966
0.61,0.07,1.19,-34.3125,80.0,-58.0625,0.4171,0.6217,-0.292,-0.5953
0.73,0.22,1.17,-33.3125,77.3125,-53.5,0.418,0.6257,-0.2847,-0.5939
0.89,0.39,1.17,-31.75,75.1875,-48.375,0.4191,0.6295,-0.278,-0.5923
0.98,0.49,1.13,-30.9375,73.75,-43.6875,0.4202,0.6331,-0.2714,-0.5907
0.93,0.43,1.11,-30.9375,72.8125,-40.25,0.4225,0.6356,-0.2655,-0.5891
0.92,0.35,1.08,-31.625,73.75,-37.8125,0.425,0.6379,-0.2596,-0.5874
0.91,0.35,1.1,-31.875,76.1875,-35.0,0.4276,0.6404,-0.2538,-0.5854
0.92,0.3,1.1,-31.75,79.125,-30.875,0.4304,0.6428,-0.248,-0.5832
0.93,0.29,1.35,-31.75,79.125,-30.875,0.4324,0.6462,-0.2421,-0.5804
1.14,0.02,1.13,-30.625,81.1875,-25.75,0.4344,0.6496,-0.2362,-0.5775
1.3,-0.19,1.36,-34.25,77.0,-26.8125,0.4366,0.6526,-0.2302,-0.575
1.01,0.74,1.47,-29.0625,71.5,-19.1875,0.4386,0.6553,-0.2251,-0.5723
1.08,0.38,1.25,-27.5,72.5625,-16.875,0.4426,0.6563,-0.2209,-0.5698
1.29,0.06,1.22,-32.625,76.75,-22.4375,0.4462,0.6577,-0.2159,-0.5672
1.39,0.07,1.29,-39.0,77.4375,-21.25,0.4501,0.6591,-0.2106,-0.5645
1.33,0.48,1.13,-43.0625,77.1875,-15.1875,0.4545,0.6602,-0.2054,-0.5616
1.44,0.65,1.12,-44.0,79.875,-13.3125,0.4577,0.6625,-0.1996,-0.5583
1.58,0.82,1.23,-42.4375,82.3125,-13.75,0.4608,0.665,-0.1936,-0.555
1.84,0.73,1.34,-40.25,81.1875,-12.5,0.4637,0.6674,-0.1878,-0.5516
1.9,0.77,1.35,-38.25,76.875,-9.625,0.4667,0.6696,-0.1825,-0.5482
1.98,0.59,1.23,-39.0625,72.875,-7.4375,0.4697,0.6716,-0.1774,-0.5449
2.01,0.55,1.02,-40.5625,70.8125,-5.0,0.4728,0.6733,-0.1724,-0.5417
1.9,0.57,0.86,-41.4375,70.875,-0.8125,0.4761,0.6749,-0.1676,-0.5383
1.81,0.61,0.84,-41.4375,70.875,-0.8125,0.4797,0.6763,-0.1629,-0.5347
1.85,0.54,0.77,-42.8125,72.3125,2.75,0.4836,0.6779,-0.1582,-0.5308
1.95,0.53,0.68,-47.0,77.75,8.8125,0.4877,0.6793,-0.1534,-0.5266
1.99,0.57,0.62,-49.0625,79.0,11.125,0.492,0.6806,-0.1486,-0.5222
2.02,0.66,0.56,-50.25,78.4375,12.875,0.4965,0.6818,-0.1439,-0.5178
1.99,0.72,0.43,-51.375,77.3125,14.3125,0.5009,0.6828,-0.1392,-0.5133
2.1,0.8,0.26,-52.3125,75.875,16.6875,0.5056,0.6837,-0.1347,-0.5088
2.06,0.84,0.26,-52.25,74.6875,18.75,0.5102,0.6844,-0.1303,-0.5043
2.07,0.82,0.26,-52.5625,72.6875,20.0,0.5149,0.685,-0.1261,-0.4998
2.12,0.83,0.34,-53.0625,69.75,22.125,0.5197,0.6854,-0.1221,-0.4953
2.11,0.97,0.37,-53.0625,69.75,22.125,0.5261,0.6849,-0.1202,-0.4897
1.92,0.96,0.33,-54.25,66.875,25.75,0.531,0.6848,-0.1168,-0.4852
1.82,1.03,0.19,-54.25,62.875,30.6875,0.536,0.6846,-0.1135,-0.4807
1.71,1.13,-0.05,-54.625,63.875,33.8125,0.5411,0.6844,-0.1104,-0.476
1.67,1.16,-0.11,-56.4375,66.4375,37.25,0.5465,0.6841,-0.1072,-0.471
1.61,1.24,-0.17,-56.4375,66.4375,37.25,0.552,0.6838,-0.104,-0.4656
1.51,1.27,-0.17,-58.3125,73.25,40.9375,0.5576,0.6837,-0.1006,-0.46
1.5,1.2,-0.18,-58.875,76.6875,43.0,0.5633,0.6835,-0.0972,-0.454
1.44,1.1,-0.28,-59.4375,80.6875,45.125,0.5692,0.6833,-0.0937,-0.4476
1.4,1.0,-0.31,-60.875,84.6875,47.625,0.5751,0.6832,-0.0901,-0.4409
1.32,1.15,-0.42,-60.875,84.6875,47.625,0.5813,0.683,-0.0863,-0.4338
1.3,1.35,-0.44,-63.4375,89.0625,50.8125,0.5877,0.6827,-0.0824,-0.4262
1.33,1.52,-0.41,-68.4375,96.375,54.9375,0.5943,0.6824,-0.0783,-0.4184
1.27,1.58,-0.41,-69.125,99.0,55.6875,0.6008,0.682,-0.0741,-0.4103
1.34,1.57,-0.51,-68.1875,100.6875,55.625,0.6073,0.6816,-0.0698,-0.4021
1.34,1.31,-0.64,-68.1875,100.6875,55.625,0.6136,0.6813,-0.0656,-0.3937
1.34,1.08,-0.96,-66.75,101.875,55.4375,0.6198,0.681,-0.0611,-0.3853
1.28,0.89,-1.13,-67.1875,106.125,55.5,0.626,0.6805,-0.0566,-0.3766
1.3,0.8,-1.19,-68.4375,108.1875,56.125,0.6321,0.6801,-0.0519,-0.3677
1.22,0.84,-1.17,-68.5,110.375,57.25,0.6383,0.6796,-0.0472,-0.3585
1.17,0.79,-1.2,-68.5,110.375,57.25,0.6443,0.679,-0.0424,-0.3492
1.13,0.81,-1.2,-67.375,111.9375,57.75,0.6501,0.6785,-0.0377,-0.3398
1.09,0.82,-1.29,-63.1875,111.6875,58.75,0.6558,0.678,-0.0331,-0.3304
1.08,0.85,-1.24,-61.75,110.5,59.6875,0.6613,0.6775,-0.0287,-0.3209
1.02,0.95,-1.3,-61.25,108.8125,61.0,0.6666,0.6768,-0.0244,-0.3114
0.9,1.35,-1.3,-61.25,108.8125,61.0,0.6719,0.676,-0.0203,-0.3019
0.87,1.48,-1.27,-61.375,107.3125,62.125,0.6771,0.6751,-0.0164,-0.2924
0.78,1.52,-1.28,-56.4375,102.5,61.875,0.6819,0.6743,-0.0127,-0.2831
0.66,1.44,-1.49,-53.4375,99.9375,61.3125,0.6865,0.6735,-0.0092,-0.2739
0.5,1.29,-1.52,-51.4375,97.8125,60.5,0.6909,0.6727,-0.0057,-0.2648
0.33,1.13,-1.59,-51.4375,97.8125,60.5,0.6951,0.6719,-0.0024,-0.2559
0.21,1.06,-1.71,-50.125,96.375,59.8125,0.6991,0.671,0.001,-0.247
0.15,0.88,-1.92,-47.6875,95.6875,57.3125,0.7029,0.6702,0.0044,-0.2382
0.1,0.68,-2.05,-45.6875,95.6875,54.9375,0.7066,0.6694,0.0079,-0.2294
0.01,0.47,-2.17,-42.875,95.3125,51.25,0.7099,0.6686,0.0115,-0.2209
0.21,-0.03,-2.3,-42.875,95.3125,51.25,0.713,0.668,0.0152,-0.2128
0.28,-0.3,-2.38,-40.0625,93.9375,47.75,0.7157,0.6674,0.0189,-0.2048
0.36,-0.52,-2.4,-34.25,88.125,40.625,0.7181,0.6669,0.0225,-0.1973
0.39,-0.75,-2.48,-32.1875,84.375,36.25,0.7204,0.6664,0.0261,-0.1903
0.53,-1.07,-2.58,-30.1875,80.25,31.1875,0.7224,0.666,0.0297,-0.1838
0.6,-1.18,-2.56,-30.1875,80.25,31.1875,0.7224,0.666,0.0297,-0.1838
0.54,-1.24,-2.58,-27.6875,75.0,26.875,0.7258,0.665,0.0366,-0.1725
0.43,-1.15,-2.63,-25.375,66.3125,19.5,0.7273,0.6644,0.0399,-0.1675
0.22,-0.82,-2.73,-24.375,64.3125,17.1875,0.7286,0.6639,0.0433,-0.1627
0.15,-0.58,-2.67,-23.0625,63.4375,15.6875,0.7299,0.6634,0.0466,-0.1581
0.05,-0.4,-2.67,-23.0625,63.4375,15.6875,0.731,0.663,0.05,-0.1536
-0.14,-0.08,-2.59,-21.125,62.75,14.1875,0.732,0.6626,0.0533,-0.1494
-0.26,0.09,-2.51,-18.5625,57.8125,10.6875,0.7329,0.6622,0.0565,-0.1453
-0.44,0.24,-2.37,-19.0,53.8125,8.75,0.7338,0.6617,0.0596,-0.1417
-0.66,0.46,-2.43,-19.9375,50.875,6.1875,0.7347,0.6611,0.0626,-0.1384
-0.85,0.98,-2.65,-19.9375,50.875,6.1875,0.7357,0.6605,0.0657,-0.1351
-1.0,1.13,-2.67,-20.3125,50.5,4.6875,0.7365,0.6599,0.069,-0.1318
-1.21,1.36,-2.68,-18.875,54.625,2.4375,0.7372,0.6593,0.0724,-0.1285
-1.19,1.62,-2.42,-17.5,55.4375,1.875,0.7379,0.6588,0.076,-0.1252
-1.1,1.63,-2.27,-14.5625,54.5625,1.6875,0.7384,0.6585,0.0795,-0.1219
-1.0,1.46,-2.16,-14.5625,54.5625,1.6875,0.7384,0.6585,0.0795,-0.1219
-0.94,1.17,-2.15,-9.625,52.4375,-0.1875,0.7385,0.6586,0.0862,-0.1163
-0.96,0.48,-2.19,-0.6875,49.0625,-5.875,0.738,0.659,0.0896,-0.114
-0.96,0.16,-2.2,1.5,48.0,-9.3125,0.7375,0.6595,0.0931,-0.1119
-0.85,-0.08,-2.11,2.5625,48.625,-12.3125,0.7369,0.66,0.0968,-0.1099
-0.62,-0.43,-2.17,2.5625,48.625,-12.3125,0.7369,0.66,0.0968,-0.1099
-0.51,-0.57,-2.13,3.75,50.0,-15.0625,0.7361,0.6606,0.1007,-0.1082
-0.39,-0.74,-2.13,5.1875,54.125,-20.5,0.7343,0.6618,0.1093,-0.1047
-0.29,-0.91,-2.04,5.25,57.0,-21.75,0.7332,0.6624,0.114,-0.1029
-0.25,-1.25,-1.81,4.375,59.3125,-22.375,0.7322,0.663,0.119,-0.101
-0.15,-1.32,-1.66,4.375,59.3125,-22.375,0.7322,0.663,0.119,-0.101
-0.17,-1.4,-1.55,3.0625,61.4375,-22.5,0.7312,0.6635,0.124,-0.099
-0.19,-1.36,-1.4,-0.625,65.5625,-20.75,0.7294,0.6641,0.1343,-0.0944
-0.26,-1.06,-1.49,-3.3125,69.3125,-19.6875,0.7286,0.6642,0.1397,-0.0917
-0.23,-0.79,-1.47,-5.8125,72.6875,-18.3125,0.728,0.6642,0.1453,-0.0887
-0.14,-0.5,-1.35,-5.8125,72.6875,-18.3125,0.728,0.6642,0.1453,-0.0887
0.28,0.07,-0.93,-6.75,73.5625,-18.0625,0.7273,0.6641,0.1508,-0.0856
0.46,0.24,-0.64,-5.375,61.125,-19.625,0.726,0.6638,0.1611,-0.0804
0.53,0.38,-0.49,-2.5625,49.0,-21.6875,0.7253,0.6636,0.1653,-0.079
0.5,0.49,-0.36,1.125,37.0,-24.8125,0.7245,0.6636,0.169,-0.0784
0.11,0.51,-0.18,1.125,37.0,-24.8125,0.7245,0.6636,0.169,-0.0784
-0.06,0.5,-0.13,3.6875,28.625,-27.5,0.7236,0.6638,0.1714,-0.0795
-0.21,0.52,-0.18,5.0,27.8125,-28.75,0.7219,0.6639,0.1779,-0.0801
-0.39,0.51,-0.39,4.375,34.6875,-29.3125,0.7209,0.664,0.1816,-0.08
-0.35,0.41,-0.24,3.25,44.0625,-30.4375,0.7198,0.664,0.1859,-0.0795
-0.2,0.38,-0.17,3.25,44.0625,-30.4375,0.7198,0.664,0.1859,-0.0795
0.0,0.38,-0.23,1.75,53.375,-31.4375,0.7184,0.6647,0.1884,-0.0812
0.21,0.25,-0.2,-0.5625,61.5,-31.6875,0.716,0.6644,0.1998,-0.0777
0.36,0.12,0.02,-3.25,68.0,-32.0,0.7148,0.6639,0.2062,-0.0754
0.46,0.0,0.26,-5.1875,74.125,-33.0,0.7136,0.6635,0.213,-0.0728
0.51,-0.09,0.44,-6.8125,80.75,-33.3125,0.7136,0.6635,0.213,-0.0728
0.59,-0.11,0.6,-8.75,87.4375,-32.4375,0.7123,0.6628,0.2201,-0.0697
0.73,-0.06,0.64,-11.375,93.5,-32.1875,0.7096,0.6612,0.2354,-0.0624
0.87,0.07,0.64,-13.5,98.0,-32.0,0.7083,0.6601,0.2432,-0.0584
1.11,0.23,0.63,-15.4375,100.5,-32.25,0.707,0.6589,0.2512,-0.0545
1.19,0.16,0.6,-16.25,99.75,-33.3125,0.707,0.6589,0.2512,-0.0545
1.21,0.05,0.55,-15.75,96.6875,-36.1875,0.7056,0.6577,0.259,-0.051
1.21,-0.04,0.48,-14.875,92.8125,-39.5,0.7028,0.6548,0.2745,-0.045
1.1,-0.25,0.36,-14.0,89.1875,-42.125,0.7014,0.6533,0.282,-0.0426
1.04,-0.29,0.36,-13.8125,85.875,-43.875,0.7,0.6517,0.2894,-0.0405
0.98,-0.23,0.39,-13.875,80.875,-45.25,0.7,0.6517,0.2894,-0.0405
0.87,-0.12,0.31,-14.0,75.0625,-46.625,0.6987,0.6501,0.296,-0.0392
0.83,-0.05,0.34,-13.8125,69.6875,-48.125,0.6964,0.6465,0.3094,-0.0369
0.79,0.02,0.34,-13.0,65.8125,-49.875,0.6953,0.6445,0.316,-0.0361
0.68,0.08,0.37,-12.5,63.4375,-51.9375,0.6941,0.6425,0.3227,-0.0357
0.44,0.25,0.27,-12.0625,61.8125,-54.6875,0.6941,0.6425,0.3227,-0.0357
0.43,0.38,0.2,-12.6875,60.3125,-56.5,0.6929,0.6407,0.3287,-0.036
0.4,0.55,0.18,-13.875,59.9375,-57.125,0.6907,0.6361,0.342,-0.0355
0.47,0.88,0.26,-15.3125,60.125,-58.125,0.6897,0.6336,0.3488,-0.0352
0.53,1.04,0.36,-16.375,60.0,-59.75,0.6887,0.6309,0.3556,-0.0352
0.6,1.15,0.35,-17.375,59.0,-61.6875,0.6887,0.6309,0.3556,-0.0352
0.63,1.22,0.38,-17.9375,57.0625,-64.0625,0.6877,0.6281,0.3624,-0.0353
0.77,1.27,0.39,-17.875,53.6875,-66.375,0.686,0.6221,0.3756,-0.0365
0.85,1.36,0.3,-18.4375,49.8125,-68.375,0.6853,0.6189,0.382,-0.0376
0.87,1.53,0.25,-19.0625,45.1875,-69.6875,0.6851,0.6159,0.387,-0.0377
0.82,1.77,0.2,-20.75,40.875,-71.125,0.6851,0.6159,0.387,-0.0377
0.73,2.24,0.28,-23.1875,37.875,-72.5,0.6849,0.6123,0.3931,-0.0392
0.77,2.43,0.24,-24.5,36.4375,-73.25,0.6844,0.6048,0.405,-0.0422
0.82,2.61,0.21,-24.8125,36.625,-73.0,0.6841,0.601,0.4109,-0.0436
0.82,2.79,0.24,-24.375,38.4375,-72.0625,0.6836,0.5974,0.4169,-0.0448
0.91,2.83,0.2,-23.8125,40.5,-70.625,0.6836,0.5974,0.4169,-0.0448
1.08,2.83,0.29,-22.625,42.1875,-68.6875,0.683,0.5937,0.4229,-0.0458
1.27,2.72,0.42,-20.1875,42.625,-66.1875,0.6813,0.5872,0.4344,-0.0478
1.6,2.3,0.38,-17.0,41.5,-64.125,0.6802,0.5844,0.4398,-0.049
1.81,2.08,0.43,-12.9375,39.125,-62.375,0.6791,0.5817,0.4448,-0.0504
1.97,1.87,0.4,-9.25,34.25,-61.3125,0.6791,0.5817,0.4448,-0.0504
2.2,1.48,0.44,-6.1875,28.625,-61.125,0.6781,0.5791,0.4495,-0.0523
2.31,1.37,0.45,-4.0625,23.0,-61.375,0.6763,0.5742,0.4579,-0.0571
2.42,1.31,0.47,-2.9375,18.25,-62.375,0.6755,0.5716,0.4619,-0.06
2.48,1.28,0.49,-2.3125,14.5,-64.0625,0.6749,0.5688,0.4658,-0.063
2.6,1.36,0.42,-3.3125,12.4375,-66.0625,0.6749,0.5688,0.4658,-0.063
2.68,1.47,0.46,-5.125,10.8125,-67.1875,0.6743,0.566,0.4697,-0.0661
2.7,1.64,0.45,-6.625,9.9375,-67.4375,0.6735,0.5599,0.4773,-0.0723
2.83,1.81,0.59,-8.0625,9.4375,-67.4375,0.6731,0.5567,0.481,-0.0754
2.92,1.88,0.66,-8.3125,8.1875,-66.9375,0.6739,0.5556,0.4813,-0.0746
2.9,1.84,0.76,-7.5625,6.4375,-65.75,0.6739,0.5556,0.4813,-0.0746
2.96,1.86,0.86,-6.4375,3.0625,-64.5625,0.6736,0.5526,0.4845,-0.0779
2.94,1.85,0.82,-5.75,-0.375,-62.5625,0.6734,0.5469,0.4901,-0.0846
2.96,1.83,0.8,-4.625,-2.75,-60.3125,0.6733,0.5443,0.4926,-0.0879
2.97,1.83,0.75,-4.125,-4.125,-57.625,0.6733,0.5417,0.4949,-0.0911
2.95,1.85,0.67,-4.125,-4.75,-54.875,0.6733,0.5417,0.4949,-0.0911
3.02,1.88,0.72,-4.5,-4.75,-51.75,0.6733,0.5392,0.497,-0.094
3.05,1.85,0.87,-5.0625,-4.0625,-48.0625,0.6734,0.5347,0.5009,-0.0991
3.16,1.88,0.89,-5.5625,-3.0625,-44.125,0.6733,0.5327,0.5026,-0.1013
3.26,1.8,0.96,-5.5625,-1.5,-40.0625,0.6733,0.5308,0.5043,-0.103
3.35,1.78,0.97,-5.75,0.0625,-36.0,0.6733,0.5308,0.5043,-0.103
3.39,1.79,1.01,-6.3125,1.3125,-31.3125,0.6733,0.5291,0.5058,-0.1045
3.43,1.83,1.04,-7.375,3.25,-26.8125,0.6732,0.5262,0.5087,-0.1061
3.39,2.06,0.87,-9.0,5.625,-21.6875,0.6731,0.5249,0.51,-0.1062
3.4,2.27,0.9,-11.125,9.3125,-16.5,0.673,0.5238,0.5114,-0.1057
3.49,2.51,0.98,-13.0625,12.9375,-11.1875,0.673,0.5238,0.5114,-0.1057
3.89,3.0,1.41,-14.6875,16.3125,-5.125,0.6729,0.5229,0.5126,-0.1047
3.99,3.16,1.58,-15.125,17.25,1.0625,0.6729,0.5219,0.5143,-0.1016
4.02,3.25,1.64,-13.6875,14.4375,6.8125,0.6731,0.5218,0.5145,-0.1
4.01,3.23,1.61,-11.3125,9.1875,11.375,0.6735,0.522,0.514,-0.0986
3.96,3.09,1.58,-8.6875,2.6875,15.8125,0.6735,0.522,0.514,-0.0986
3.89,2.98,1.59,-6.0,-3.875,20.4375,0.6741,0.5225,0.5129,-0.0974
3.8,2.75,1.5,-3.9375,-9.5625,25.3125,0.6759,0.5243,0.5092,-0.095
3.72,2.5,1.39,-2.875,-14.0625,29.75,0.677,0.5255,0.5067,-0.0937
3.53,2.19,1.3,-2.25,-17.4375,33.5625,0.6782,0.5268,0.504,-0.0923
3.4,2.04,1.21,-2.8125,-18.9375,37.375,0.6782,0.5268,0.504,-0.0923
3.28,1.88,1.11,-4.125,-20.0625,41.75,0.6796,0.5281,0.501,-0.0906
3.12,1.62,0.98,-4.9375,-20.25,45.625,0.6825,0.5312,0.4945,-0.0865
3.01,1.48,0.9,-5.8125,-19.9375,49.5,0.684,0.5329,0.4911,-0.084
2.88,1.35,0.86,-6.8125,-18.375,53.0625,0.6854,0.5347,0.4877,-0.0811
2.72,1.28,0.85,-8.1875,-16.0,56.5625,0.6854,0.5347,0.4877,-0.0811
2.49,1.3,0.89,-11.1875,-9.75,63.375,0.6867,0.5365,0.4844,-0.0773
2.35,1.34,0.96,-11.1875,-9.75,63.375,0.6893,0.5402,0.4777,-0.0694
2.27,1.38,1.07,-13.75,-5.375,66.875,0.6905,0.5421,0.4745,-0.0647
2.07,1.61,0.55,-16.8125,-1.0,70.5625,0.6916,0.5439,0.4715,-0.0594
1.97,1.62,0.39,-20.125,4.3125,73.75,0.6916,0.5439,0.4715,-0.0594
1.98,1.57,0.38,-24.125,15.6875,76.0625,0.6924,0.5456,0.469,-0.0533
2.01,1.47,0.43,-24.125,15.6875,76.0625,0.694,0.549,0.4641,-0.0408
2.13,1.45,0.61,-24.6875,18.75,77.375,0.6946,0.5506,0.4617,-0.0344
2.13,1.45,0.75,-24.9375,18.625,78.5625,0.6954,0.5522,0.4589,-0.028
2.08,1.46,0.89,-25.0625,15.75,79.25,0.6954,0.5522,0.4589,-0.028
1.98,1.52,0.98,-23.4375,10.9375,79.9375,0.6962,0.5546,0.4552,-0.0227
1.8,1.5,0.88,-20.5625,3.6875,80.375,0.6983,0.5584,0.4476,-0.0118
1.59,1.55,0.62,-18.0625,-4.25,81.0,0.6996,0.5605,0.4432,-0.0068
1.3,1.54,0.55,-17.125,-10.625,81.75,0.7009,0.5625,0.4385,-0.002
0.95,1.57,0.52,-17.0,-13.6875,81.9375,0.7009,0.5625,0.4385,-0.002
0.83,1.41,0.49,-17.1875,-10.375,80.6875,0.7021,0.5647,0.4338,0.0026
0.73,1.24,0.37,-17.1875,-10.375,80.6875,0.7043,0.5685,0.425,0.0127
0.64,1.09,0.32,-17.375,-6.25,80.75,0.7051,0.5703,0.421,0.018
0.68,0.93,0.26,-18.25,-1.875,80.625,0.7059,0.572,0.4172,0.0236
0.59,0.82,0.28,-18.8125,1.4375,80.3125,0.7059,0.572,0.4172,0.0236
0.45,0.77,0.31,-19.8125,6.3125,79.5625,0.7065,0.5737,0.4133,0.0297
0.32,0.92,0.41,-19.8125,6.3125,79.5625,0.7072,0.5753,0.4095,0.0356
0.19,1.0,0.48,-20.875,8.25,78.8125,0.7081,0.5781,0.4027,0.0477
0.04,1.05,0.47,-21.625,12.3125,78.5,0.7083,0.5794,0.3995,0.0537
-0.07,1.07,0.43,-21.625,12.3125,78.5,0.7083,0.5794,0.3995,0.0537
-0.12,1.2,0.3,-22.25,17.25,75.625,0.7085,0.5806,0.3968,0.0598
-0.17,1.25,0.28,-22.25,17.25,75.625,0.7087,0.5825,0.3915,0.072
-0.23,1.27,0.35,-23.75,20.375,71.5625,0.7087,0.5833,0.3891,0.0781
-0.35,1.63,0.12,-23.75,20.375,71.5625,0.7089,0.5843,0.3863,0.0823
-0.9,1.95,-0.66,-15.125,4.0,58.8125,0.7089,0.5843,0.3863,0.0823
-1.58,2.08,-0.82,-8.5,0.625,48.0,0.709,0.5853,0.3839,0.0855
-1.8,2.27,-0.44,-8.75,9.9375,46.4375,0.7083,0.5876,0.3799,0.0936
0.01,1.92,0.08,-7.625,13.4375,60.8125,0.7079,0.5894,0.3766,0.0978
0.32,1.77,0.26,-5.5625,1.625,65.6875,0.7084,0.5909,0.3726,0.1002
0.09,1.81,0.46,-6.0,-21.9375,55.1875,0.7084,0.5909,0.3726,0.1002
-1.08,2.01,0.48,-4.625,-41.5625,45.5625,0.7096,0.5925,0.3677,0.101
-1.32,1.84,0.38,3.8125,-51.5,43.875,0.7113,0.5972,0.357,0.1003
-1.23,1.35,0.34,13.6875,-56.6875,44.375,0.7118,0.6,0.3514,0.0992
-1.16,0.85,0.26,18.9375,-60.8125,41.75,0.7122,0.603,0.3458,0.0976
-0.94,0.02,0.05,22.125,-64.0625,37.8125,0.7122,0.603,0.3458,0.0976
-1.05,-0.46,-0.1,25.75,-64.75,34.875,0.7128,0.6071,0.3386,0.0936
-1.16,-0.91,-0.32,28.0625,-62.875,31.75,0.713,0.613,0.3286,0.0894
-1.2,-1.35,-0.49,26.6875,-59.25,28.0,0.713,0.6155,0.3242,0.0873
-1.04,-1.88,-0.5,23.625,-54.625,24.25,0.7133,0.6176,0.3202,0.0855
-1.01,-2.06,-0.53,19.4375,-50.1875,21.6875,0.7133,0.6176,0.3202,0.0855
-1.09,-2.17,-0.66,14.125,-44.0,18.375,0.7139,0.6205,0.3143,0.0812
-1.15,-2.11,-0.84,9.1875,-35.75,15.9375,0.7145,0.6226,0.3091,0.0795
-1.03,-2.03,-0.86,5.5625,-24.6875,14.9375,0.7146,0.6233,0.3074,0.0795
-0.95,-2.02,-0.75,2.9375,-15.0625,15.1875,0.7147,0.6238,0.3062,0.08
-0.84,-1.94,-0.6,0.75,-8.25,14.5625,0.7147,0.6238,0.3062,0.08
-0.61,-1.73,-0.48,-1.0,-5.75,13.0,0.7148,0.6243,0.3047,0.08
-0.61,-1.58,-0.56,-1.4375,-6.5,11.25,0.7151,0.6248,0.3027,0.0804
-0.65,-1.46,-0.65,-0.25,-8.5,8.8125,0.7153,0.6251,0.3018,0.0802
-0.72,-1.29,-1.04,1.25,-10.25,5.8125,0.7155,0.6254,0.3009,0.0797
-0.7,-1.14,-1.07,2.125,-12.0625,2.75,0.7155,0.6254,0.3009,0.0797
-0.6,-0.99,-0.89,2.5,-16.3125,-0.5625,0.7158,0.6257,0.2999,0.0787
-0.51,-0.86,-0.65,4.0,-23.4375,-4.0,0.7167,0.6264,0.2974,0.0749
-0.7,-0.6,-0.64,6.875,-30.625,-8.125,0.7167,0.6264,0.2974,0.0749
-0.9,-0.43,-0.71,8.5625,-34.625,-12.25,0.7177,0.6272,0.2947,0.0691
-1.05,-0.22,-0.78,9.0625,-34.8125,-15.3125,0.7177,0.6272,0.2947,0.0691
-1.14,0.03,-1.08,8.4375,-31.9375,-17.5625,0.7181,0.6274,0.2938,0.0661
-1.3,0.53,-1.22,7.3125,-26.6875,-19.4375,0.7184,0.6276,0.2932,0.0634
-1.41,0.75,-1.18,7.0,-21.0625,-22.5,0.7187,0.6276,0.2932,0.0607
-1.45,0.89,-1.36,7.875,-15.125,-25.375,0.7188,0.6274,0.2936,0.0582
-1.47,0.98,-1.57,9.375,-9.1875,-26.75,0.7187,0.6274,0.2946,0.0558
-1.36,0.98,-1.52,10.625,-5.1875,-27.625,0.7184,0.6274,0.2958,0.0536
-1.22,0.86,-1.49,12.875,-3.5,-28.6875,0.7179,0.6274,0.2971,0.0513
-1.07,0.72,-1.52,15.625,-3.25,-30.375,0.7173,0.6277,0.2986,0.0489
-1.06,0.3,-1.29,17.1875,-2.5,-32.6875,0.7166,0.6279,0.3002,0.0464
-0.98,0.27,-1.21,17.1875,0.1875,-35.3125,0.7158,0.6281,0.3022,0.0438
-0.91,0.37,-1.26,15.9375,4.125,-36.6875,0.715,0.6281,0.3044,0.0414
-0.89,0.56,-1.48,14.625,8.5625,-38.625,0.7141,0.6279,0.3071,0.0391
-0.81,0.54,-1.6,13.8125,13.5625,-42.5,0.7131,0.6276,0.3102,0.0369
-0.65,0.54,-1.74,13.25,20.5,-47.1875,0.712,0.6271,0.314,0.0348
-0.32,0.47,-1.72,12.4375,28.875,-49.6875,0.7108,0.6264,0.3184,0.033
0.07,0.35,-1.44,10.5,37.125,-50.6875,0.7093,0.6255,0.3233,0.0317
0.28,0.47,-1.45,9.625,42.0625,-52.5,0.7078,0.6246,0.3286,0.0305
0.54,0.52,-1.45,10.6875,43.75,-54.0,0.7061,0.6236,0.3341,0.0292
0.7,0.42,-1.41,13.0625,42.8125,-54.125,0.7043,0.6227,0.3395,0.0279
